Folder: potentiostat-data-analysis/Input_data (part 5)

File: [1] JJ1-53 1st SC total meas_09_CV.mpt
EC-Lab ASCII FILE
Nb header lines : 56

Cyclic Voltammetry

Run on channel : 1 (SN 31418)
User :
CE vs. WE compliance from -10 V to 10 V
Electrode connection : standard
Ewe ctrl range : min = -10.00 V, max = 10.00 V
Safety Limits :
	Do not start on E overload
Acquisition started on : 01/25/2023 15:21:28
Technique started on : 01/25/2023 17:31:23
Saved on :
	File : [1] JJ1-53 1st SC total meas_09_CV.mpr
	Directory : C:\Users\Potentiostat\Documents\EC-Lab\Data\Supercapacitor until 2021 02\(230125) SC JJ1-53 54 lower CB better viscosity\
	Host : 127.0.0.1
Device : SP-150 (SN 1275)
Address : USB
EC-Lab for windows v11.16 (software)
Internet server v11.16 (firmware)
Command interpretor v11.16 (firmware)
Electrode material : Au/Pd
Initial state :
Electrolyte : NaCl (0.2M)
Comments : Fe(CN)63-/Fe(CN)64- 5.10-3 M
Reference electrode : SCE Saturated Calomel Electrode (0.241 V)
Electrode surface area : 0.001 cm²
Characteristic mass : 0.001 g
Equivalent Weight : 0.000 g/eq.
Density : 0.000 g/cm3
Cycle Definition : Charge/Discharge alternance
Ei (V)              0.000
vs.                 Ref
dE/dt               10.000
dE/dt unit          mV/s
E1 (V)              0.800
vs.                 Ref
Step percent        0
N                   10
E range min (V)     -10.000
E range max (V)     10.000
I Range             Auto
I Range min         Unset
I Range max         Unset
I Range init        Unset
Bandwidth           7
E2 (V)              0.000
vs.                 Ref
nc cycles           5
Reverse Scan        0
Ef (V)              0.000
vs.                 Eoc

mode	ox/red	error	control changes	counter inc.	time/s	control/V	Ewe/V	<I>/mA	cycle number	(Q-Qo)/C	P/W
2	1	0	1	0	7795.13	0.000747797	0.000304169	-0.623954	1	0.0000000E+000	-1.89787e-07
2	1	0	1	0	7801.86	0.0680331	0.0676533	0.15272	1	-0.000706868	1.0332e-05
2	1	0	1	0	7808.63	0.13578	0.135338	0.377311	1	0.00121074	5.10644e-05
2	1	0	0	0	7815.41	0.203527	0.203132	0.505322	1	0.0042591	0.000102647
2	1	0	0	0	7822.18	0.271275	0.270897	0.600012	1	0.00804072	0.000162542
2	1	0	1	0	7828.96	0.339022	0.338585	0.68328	1	0.0124179	0.000231348
2	1	0	1	0	7835.73	0.406769	0.406338	0.767972	1	0.0173582	0.000312056
2	1	0	1	0	7842.51	0.474516	0.474105	0.865818	1	0.0229063	0.000410489
2	1	0	0	0	7849.28	0.542263	0.541814	0.9859	1	0.0291921	0.000534174
2	1	0	0	0	7856.09	0.610318	0.609818	1.13106	1	0.0364161	0.000689738
2	1	0	1	0	7862.86	0.678066	0.677586	1.28839	1	0.0446406	0.000872996
2	1	0	1	0	7869.64	0.745813	0.745325	1.44518	1	0.0539279	0.00107713
2	0	0	1	0	7876.13	0.788925	0.788441	1.19132	1	0.0635939	0.000939289
2	0	0	1	0	7882.97	0.720562	0.72017	0.0817	1	0.0672505	5.88379e-05
2	0	0	0	0	7889.84	0.651891	0.651448	-0.39089	1	0.065972	-0.000254644
2	0	0	0	0	7896.61	0.584143	0.583694	-0.64125	1	0.0623711	-0.000374294
2	0	0	0	0	7903.39	0.516395	0.515969	-0.794432	1	0.0574427	-0.000409902
2	0	0	1	0	7910.16	0.448649	0.448222	-0.896758	1	0.0516593	-0.000401947
2	0	0	1	0	7916.94	0.380902	0.380455	-0.942638	1	0.0453651	-0.000358632
2	0	0	0	0	7923.71	0.313155	0.312717	-0.95373	1	0.0389139	-0.000298248
2	0	0	0	0	7930.48	0.245408	0.245022	-0.97492	1	0.0323608	-0.000238877
2	0	0	0	0	7937.26	0.17766	0.17721	-1.00203	1	0.0256359	-0.000177569
2	0	0	1	0	7944.03	0.109913	0.109559	-1.02189	1	0.0187472	-0.000111957
2	0	0	1	0	7950.84	0.0418587	0.0413705	-1.03392	1	0.0117193	-4.2774e-05
2	1	0	1	1	7957.37	0.0236895	0.0232149	-0.478186	2	0.00570418	-1.11011e-05
2	1	0	1	1	7964.25	0.0925137	0.0921901	0.0959783	2	0.00479246	8.84825e-06
2	1	0	0	1	7971.04	0.160416	0.159995	0.332095	2	0.0063548	5.31335e-05
2	1	0	0	1	7977.82	0.228163	0.227756	0.474522	2	0.00914397	0.000108075
2	1	0	0	1	7984.59	0.295911	0.295478	0.582138	2	0.0127646	0.000172009
2	1	0	1	1	7991.37	0.363657	0.363248	0.67582	2	0.0170577	0.00024549
2	1	0	1	1	7998.14	0.431404	0.430949	0.76909	2	0.021975	0.000331439
2	1	0	0	1	8004.91	0.499152	0.498728	0.877432	2	0.0275678	0.0004376
2	1	0	0	1	8011.69	0.566899	0.5665	1.00896	2	0.033975	0.000571574
2	1	0	0	1	8018.5	0.634955	0.634472	1.15876	2	0.041374	0.000735201
2	1	0	1	1	8025.27	0.702701	0.702194	1.31046	2	0.0497658	0.000920195
2	1	0	1	1	8032.04	0.770447	0.769945	1.46912	2	0.0592043	0.00113114
2	0	0	1	1	8038.54	0.764289	0.763785	0.623665	2	0.0672384	0.000476346
2	0	0	0	1	8045.47	0.695002	0.694543	-0.149912	2	0.0684681	-0.000104121
2	0	0	0	1	8052.25	0.627255	0.626812	-0.508747	2	0.0660816	-0.000318889
2	0	0	0	1	8059.02	0.559508	0.55908	-0.71265	2	0.0618558	-0.000398428
2	0	0	1	1	8065.8	0.491761	0.491321	-0.844038	2	0.0565265	-0.000414694
2	0	0	1	1	8072.57	0.424014	0.423587	-0.926887	2	0.0504707	-0.000392618
2	0	0	0	1	8079.34	0.356267	0.355861	-0.951052	2	0.0440563	-0.000338443
2	0	0	0	1	8086.12	0.288519	0.288121	-0.962496	2	0.0375501	-0.000277315
2	0	0	0	1	8092.89	0.220772	0.220338	-0.986156	2	0.0309264	-0.000217287
2	0	0	1	1	8099.67	0.153025	0.152634	-1.0114	2	0.0241308	-0.000154375
2	0	0	1	1	8106.47	0.0849698	0.0844938	-1.02845	2	0.017156	-8.68973e-05
2	0	0	0	1	8113.25	0.0172227	0.0167436	-1.04113	2	0.0101187	-1.74323e-05
2	1	0	1	0	8119.81	0.0486327	0.0482603	-0.190182	3	0.00586571	-9.17827e-06
2	1	0	0	0	8126.68	0.117304	0.116916	0.199175	3	0.00612035	2.32869e-05
2	1	0	0	0	8133.45	0.185051	0.184622	0.389556	3	0.00819902	7.19207e-05
2	1	0	0	0	8140.23	0.252798	0.252434	0.516034	3	0.0113175	0.000130264
2	1	0	1	0	8147	0.320545	0.320122	0.616645	3	0.0151917	0.000197402
2	1	0	1	0	8153.78	0.388292	0.387863	0.707817	3	0.019708	0.000274536
2	1	0	0	0	8160.55	0.45604	0.455586	0.804893	3	0.0248536	0.000366698
2	1	0	0	0	8167.32	0.523787	0.523379	0.922687	3	0.0307208	0.000482915
2	1	0	0	0	8174.13	0.591842	0.591335	1.06209	3	0.0374896	0.000628053
2	1	0	1	0	8180.9	0.659589	0.659121	1.21151	3	0.0452165	0.000798531
2	1	0	1	0	8187.68	0.727336	0.726847	1.36343	3	0.0539684	0.000991005
2	1	0	0	0	8194.45	0.795084	0.794573	1.52906	3	0.0637814	0.00121495
2	0	0	1	0	8201.01	0.739037	0.738599	0.258478	3	0.0691691	0.000190911
2	0	0	0	0	8207.88	0.670367	0.670003	-0.308644	3	0.0687255	-0.000206792
2	0	0	0	0	8214.66	0.60262	0.602178	-0.595991	3	0.0655372	-0.000358892
2	0	0	1	0	8221.43	0.534873	0.534418	-0.767395	3	0.0608456	-0.000410109
2	0	0	1	0	8228.21	0.467126	0.466691	-0.881401	3	0.0552102	-0.000411342
2	0	0	0	0	8234.98	0.399378	0.398961	-0.94167	3	0.0489705	-0.000375689
2	0	0	0	0	8241.75	0.331631	0.331179	-0.954995	3	0.0425074	-0.000316274
2	0	0	0	0	8248.53	0.263884	0.26353	-0.970295	3	0.0359674	-0.000255702
2	0	0	1	0	8255.3	0.196137	0.195748	-0.994948	3	0.0292867	-0.000194759
2	0	0	1	0	8262.08	0.12839	0.128031	-1.01769	3	0.0224364	-0.000130296
2	0	0	0	0	8268.88	0.0603345	0.0598558	-1.03286	3	0.0154255	-6.18228e-05
2	1	0	1	1	8275.38	0.00490501	0.00442994	-0.871815	4	0.00869969	-3.86209e-06
2	1	0	0	1	8282.28	0.073884	0.0735603	-0.00434259	4	0.00646633	-3.19442e-07
2	1	0	0	1	8289.09	0.141939	0.141502	0.280836	4	0.007551	3.9739e-05
2	1	0	0	1	8295.86	0.209686	0.209312	0.441119	4	0.0100642	9.23314e-05
2	1	0	1	1	8302.64	0.277433	0.277084	0.555415	4	0.0134818	0.000153897
2	1	0	1	1	8309.41	0.345181	0.344745	0.650241	4	0.0175988	0.000224168
2	1	0	0	1	8316.18	0.412928	0.412441	0.741278	4	0.0223401	0.000305734
2	1	0	0	1	8322.96	0.480675	0.480244	0.845152	4	0.0277318	0.000405879
2	1	0	0	1	8329.73	0.548422	0.548004	0.971004	4	0.0338981	0.000532114
2	1	0	1	1	8336.54	0.616477	0.615909	1.11493	4	0.0410172	0.000686697
[...]
2	0	0	1	1	8410.94	0.239249	0.238896	-0.977762	4	0.0343523	-0.000233583
2	0	0	1	1	8417.71	0.171501	0.171177	-1.00321	4	0.0276115	-0.000171727
2	0	0	1	1	8424.52	0.103446	0.102975	-1.02459	4	0.0206797	-0.000105507
2	0	0	0	1	8431.29	0.0356992	0.0352804	-1.03705	4	0.0136674	-3.65876e-05
2	1	0	1	0	8437.85	0.0301565	0.0297651	-0.388041	5	0.00800365	-1.15501e-05
2	1	0	0	0	8444.72	0.0988272	0.0984306	0.125316	5	0.00744097	1.2335e-05
2	1	0	0	0	8451.5	0.166574	0.166178	0.348182	5	0.00914793	5.786e-05
2	1	0	1	0	8458.27	0.234322	0.233909	0.486654	5	0.0120305	0.000113833
2	1	0	1	0	8465.04	0.302069	0.301629	0.591251	5	0.0157212	0.000178338
2	1	0	1	0	8471.82	0.369817	0.369373	0.683102	5	0.0200699	0.00025232
2	1	0	0	0	8478.59	0.437563	0.437137	0.777194	5	0.0250382	0.00033974
2	1	0	0	0	8485.37	0.505309	0.504922	0.888317	5	0.0306943	0.000448531
2	1	0	1	0	8492.16	0.573211	0.572751	1.02159	5	0.0371967	0.000585119
2	1	0	1	0	8498.95	0.641113	0.64062	1.16974	5	0.0446625	0.000749361
2	1	0	1	0	8505.72	0.70886	0.708361	1.3195	5	0.0531215	0.000934684
2	1	0	0	0	8512.5	0.776607	0.77611	1.47806	5	0.0626174	0.00114714
2	0	0	0	0	8519	0.75813	0.757645	0.518377	5	0.0700551	0.000392746
2	0	0	0	0	8525.96	0.688536	0.688147	-0.197696	5	0.0707976	-0.000136044
2	0	0	1	0	8532.73	0.620788	0.620348	-0.535431	5	0.0681724	-0.000332153
2	0	0	1	0	8539.51	0.553041	0.552605	-0.728712	5	0.0638094	-0.00040269
2	0	0	1	0	8546.28	0.485294	0.484915	-0.854809	5	0.0583884	-0.00041451
2	0	0	0	0	8553.05	0.417547	0.417075	-0.932548	5	0.0522711	-0.000388943
2	0	0	0	0	8559.83	0.3498	0.349409	-0.95252	5	0.0458383	-0.000332819
2	0	0	1	0	8566.6	0.282053	0.281692	-0.964043	5	0.0393241	-0.000271563
2	0	0	1	0	8573.38	0.214305	0.213905	-0.987261	5	0.0326909	-0.00021118
2	0	0	1	0	8580.15	0.146558	0.146175	-1.01214	5	0.0258904	-0.000147951
2	0	0	0	0	8586.96	0.0785031	0.0780404	-1.02933	5	0.0189126	-8.0329e-05
2	0	0	0	0	8593.73	0.0107559	0.0102659	-1.04199	5	0.0118685	-1.0697e-05
2	1	0	0	1	8600.26	0.0547916	0.0544103	-0.136949	6	0.00819783	-7.45142e-06
2	1	0	0	1	8607.13	0.123463	0.123061	0.223008	6	0.00869392	2.74436e-05
2	1	0	1	1	8613.9	0.19121	0.190807	0.404777	6	0.0108995	7.72343e-05
2	1	0	1	1	8620.68	0.258957	0.258534	0.527393	6	0.0141058	0.000136349
2	1	0	1	1	8627.45	0.326704	0.326276	0.625818	6	0.0180481	0.00020419
2	1	0	0	1	8634.23	0.394451	0.394028	0.716417	6	0.0226208	0.000282288
2	1	0	0	1	8641	0.462199	0.461785	0.814449	6	0.0278251	0.0003761
2	1	0	1	1	8647.78	0.529946	0.529532	0.934221	6	0.0337667	0.0004947
2	1	0	1	1	8654.58	0.598001	0.597506	1.07497	6	0.0406234	0.000642301
2	1	0	1	1	8661.36	0.665748	0.665271	1.22357	6	0.0484357	0.000814008
2	1	0	0	1	8668.13	0.733495	0.732994	1.37434	6	0.057262	0.00100738
2	0	0	0	1	8674.77	0.799857	0.799353	1.53838	6	0.0669417	0.00122971
2	0	0	0	1	8681.47	0.732879	0.73246	0.186149	6	0.0717135	0.000136347
2	0	0	1	1	8688.37	0.6639	0.663495	-0.345137	6	0.0709141	-0.000228997
2	0	0	1	1	8695.14	0.596153	0.595732	-0.616574	6	0.0675416	-0.000367313
2	0	0	1	1	8701.92	0.528406	0.527959	-0.780466	6	0.0627401	-0.000412054
2	0	0	0	1	8708.69	0.460659	0.460231	-0.890399	6	0.0570294	-0.000409789
2	0	0	0	1	8715.46	0.392912	0.392496	-0.944269	6	0.0507499	-0.000370622
2	0	0	1	1	8722.24	0.325164	0.324742	-0.955323	6	0.0442812	-0.000310234
2	0	0	1	1	8729.01	0.257417	0.257006	-0.971473	6	0.037734	-0.000249675
2	0	0	1	1	8735.79	0.18967	0.189305	-0.996465	6	0.031043	-0.000188636
2	0	0	0	1	8742.56	0.121923	0.121536	-1.01857	6	0.0241852	-0.000123792
2	0	0	0	1	8749.37	0.0538677	0.0533738	-1.03364	6	0.0171671	-5.51694e-05
2	0	0	0	1	8754.74	0.000131913	-0.000268709	-1.04909	6	0.0115645	2.819e-07

File: [1] JJ1-53 1st SC total meas_10_CV.mpt
EC-Lab ASCII FILE
Nb header lines : 56

Cyclic Voltammetry

Run on channel : 1 (SN 31418)
User :
CE vs. WE compliance from -10 V to 10 V
Electrode connection : standard
Ewe ctrl range : min = -10.00 V, max = 10.00 V
Safety Limits :
	Do not start on E overload
Acquisition started on : 01/25/2023 15:21:28
Technique started on : 01/25/2023 17:47:22
Saved on :
	File : [1] JJ1-53 1st SC total meas_10_CV.mpr
	Directory : C:\Users\Potentiostat\Documents\EC-Lab\Data\Supercapacitor until 2021 02\(230125) SC JJ1-53 54 lower CB better viscosity\
	Host : 127.0.0.1
Device : SP-150 (SN 1275)
Address : USB
EC-Lab for windows v11.16 (software)
Internet server v11.16 (firmware)
Command interpretor v11.16 (firmware)
Electrode material : Au/Pd
Initial state :
Electrolyte : NaCl (0.2M)
Comments : Fe(CN)63-/Fe(CN)64- 5.10-3 M
Reference electrode : SCE Saturated Calomel Electrode (0.241 V)
Electrode surface area : 0.001 cm²
Characteristic mass : 0.001 g
Equivalent Weight : 0.000 g/eq.
Density : 0.000 g/cm3
Cycle Definition : Charge/Discharge alternance
Ei (V)              0.000
vs.                 Ref
dE/dt               20.000
dE/dt unit          mV/s
E1 (V)              0.800
vs.                 Ref
Step percent        50
N                   10
E range min (V)     -10.000
E range max (V)     10.000
I Range             Auto
I Range min         Unset
I Range max         Unset
I Range init        Unset
Bandwidth           7
E2 (V)              0.000
vs.                 Ref
nc cycles           5
Reverse Scan        0
Ef (V)              0.000
vs.                 Eoc

mode	ox/red	error	control changes	counter inc.	time/s	control/V	Ewe/V	<I>/mA	cycle number	(Q-Qo)/C	P/W
2	1	0	0	0	8754.95	0.00197956	0.00165998	-1.07326	1	0.0000000E+000	-1.78159e-06
2	1	0	0	0	8758.36	0.0701887	0.0698525	0.0359838	1	-0.00129481	2.51356e-06
2	1	0	1	0	8761.78	0.138552	0.138183	0.468851	1	-0.000346507	6.47872e-05
2	1	0	0	0	8765.16	0.206299	0.205875	0.728234	1	0.00171925	0.000149925
2	1	0	1	0	8768.55	0.274047	0.273686	0.916917	1	0.00452632	0.000250947
2	1	0	1	0	8771.97	0.342409	0.341896	1.07572	1	0.00794524	0.000367784
2	1	0	0	0	8775.36	0.410156	0.409692	1.22276	1	0.0118479	0.000500956
2	1	0	1	0	8778.74	0.477904	0.477458	1.37756	1	0.0162559	0.000657726
2	1	0	0	0	8782.13	0.545651	0.545145	1.55366	1	0.0212217	0.00084697
2	1	0	1	0	8785.52	0.613399	0.612897	1.75727	1	0.0268313	0.00107702
2	1	0	1	0	8788.91	0.681145	0.680709	1.98232	1	0.0331695	0.00134938
2	1	0	0	0	8792.29	0.748892	0.748436	2.21749	1	0.0402881	0.00165965
2	0	0	1	0	8795.54	0.785845	0.785348	1.8833	1	0.0476627	0.00147905
2	0	0	0	0	8798.95	0.717635	0.717224	0.455925	1	0.0513384	0.000327001
2	0	0	0	0	8802.44	0.647887	0.647443	-0.325688	1	0.0514329	-0.000210864
2	0	0	1	0	8805.83	0.58014	0.579732	-0.789214	1	0.0494774	-0.000457533
2	0	0	0	0	8809.25	0.511777	0.511266	-1.09748	1	0.0462109	-0.000561105
2	0	0	1	0	8812.63	0.444031	0.443582	-1.31101	1	0.0421019	-0.000581541
2	0	0	1	0	8816.02	0.376283	0.37582	-1.45381	1	0.0373893	-0.000546372
2	0	0	0	0	8819.41	0.308536	0.307975	-1.53138	1	0.0323134	-0.000471628
2	0	0	1	0	8822.8	0.240788	0.240327	-1.58658	1	0.0270211	-0.000381297
2	0	0	0	0	8826.18	0.173041	0.172562	-1.63826	1	0.0215508	-0.000282701
2	0	0	1	0	8829.57	0.105295	0.104797	-1.69019	1	0.0159049	-0.000177127
2	0	0	1	0	8832.96	0.0375468	0.0370882	-1.73721	1	0.0100911	-6.44298e-05
2	1	0	0	1	8836.15	0.0264609	0.0259775	-1.00248	2	0.00506261	-2.6042e-05
2	1	0	0	1	8839.58	0.0951319	0.0947398	-0.0870078	2	0.00342576	-8.2431e-06
2	1	0	0	1	8843.04	0.164419	0.164068	0.375848	2	0.00400856	6.16648e-05
2	1	0	1	1	8846.43	0.232167	0.231804	0.661825	2	0.00580371	0.000153414
2	1	0	1	1	8849.82	0.299913	0.299522	0.872738	2	0.00842588	0.000261404
2	1	0	0	1	8853.24	0.368276	0.367812	1.05009	2	0.011727	0.000386236
2	1	0	1	1	8856.62	0.436023	0.435544	1.21262	2	0.0155678	0.000528149
2	1	0	0	1	8860.01	0.503771	0.503214	1.38252	2	0.0199664	0.000695705
2	1	0	1	1	8863.4	0.571519	0.570974	1.57395	2	0.0249765	0.000898687
2	1	0	1	1	8866.79	0.639265	0.638755	1.78724	2	0.0306728	0.00114161
2	1	0	0	1	8870.17	0.707012	0.706527	2.01499	2	0.0371175	0.00142364
2	1	0	1	1	8873.56	0.774759	0.774286	2.25727	2	0.0443572	0.00174778
2	0	0	0	1	8876.75	0.76121	0.760697	1.19762	2	0.050544	0.000911023
2	0	0	1	1	8880.18	0.692539	0.69207	0.0919818	2	0.0525479	6.36578e-05
2	0	0	1	1	8883.65	0.623252	0.622802	-0.543763	2	0.0516642	-0.000338656
2	0	0	0	1	8887.03	0.555505	0.555034	-0.932806	2	0.0491078	-0.000517739
2	0	0	1	1	8890.45	0.487142	0.486652	-1.19872	2	0.0454268	-0.000583359
2	0	0	1	1	8893.84	0.419395	0.418878	-1.38459	2	0.0410233	-0.000579975
2	0	0	0	1	8897.23	0.351647	0.351127	-1.49718	2	0.0361132	-0.000525698
2	0	0	1	1	8900.61	0.2839	0.28349	-1.56044	2	0.0309194	-0.00044237
2	0	0	0	1	8904	0.216153	0.215684	-1.61079	2	0.0255383	-0.000347422
2	0	0	1	1	8907.39	0.148406	0.147909	-1.6609	2	0.0199906	-0.000245663
2	0	0	1	1	8910.78	0.0806587	0.0802004	-1.70984	2	0.014273	-0.000137129
2	0	0	0	1	8914.16	0.0129115	0.0124407	-1.75651	2	0.00839237	-2.18522e-05
2	1	0	1	0	8917.35	0.0510963	0.0506707	-0.582068	3	0.00455424	-2.94937e-05
2	1	0	0	0	8920.86	0.121307	0.120919	0.1167	3	0.00389267	1.41113e-05
2	1	0	1	0	8924.25	0.189055	0.188649	0.490582	3	0.0049792	9.25476e-05
2	1	0	1	0	8927.64	0.256801	0.256409	0.743037	3	0.00710024	0.000190521
2	1	0	0	0	8931.02	0.324549	0.324103	0.937848	3	0.0099673	0.000303959
2	1	0	1	0	8934.44	0.392912	0.392371	1.10742	3	0.0134758	0.00043452
2	1	0	0	0	8937.83	0.460659	0.46012	1.26967	3	0.0175093	0.000584201
2	1	0	1	0	8941.22	0.528407	0.527886	1.44723	3	0.0221147	0.000763975
2	1	0	1	0	8944.6	0.596153	0.595625	1.64702	3	0.0273576	0.000981007
2	1	0	0	0	8947.99	0.6639	0.663392	1.86461	3	0.0333096	0.00123696
2	1	0	1	0	8951.38	0.731648	0.731139	2.09575	3	0.0400224	0.00153228
2	1	0	0	0	8954.74	0.798779	0.79832	2.34424	3	0.0474753	0.00187146
2	0	0	0	0	8957.95	0.736575	0.736069	0.71349	3	0.0520403	0.000525178
2	0	0	1	0	8961.46	0.666364	0.665999	-0.189444	3	0.052797	-0.00012617
2	0	0	0	0	8964.85	0.598617	0.598174	-0.706786	3	0.0512004	-0.000422781
2	0	0	1	0	8968.27	0.530254	0.529726	-1.04533	3	0.0481588	-0.000553736
2	0	0	1	0	8971.66	0.462506	0.461983	-1.27673	3	0.0441967	-0.000589825
2	0	0	0	0	8975.05	0.394759	0.394264	-1.43531	3	0.039575	-0.000565892
2	0	0	1	0	8978.43	0.327012	0.326508	-1.52314	3	0.0345384	-0.000497316
2	0	0	0	0	8981.82	0.259265	0.258798	-1.5795	3	0.0292706	-0.00040877
2	0	0	1	0	8985.21	0.191518	0.191033	-1.6276	3	0.0238312	-0.000310925
2	0	0	1	0	8988.59	0.123771	0.123305	-1.67701	3	0.0182271	-0.000206783
2	0	0	0	0	8991.98	0.0560233	0.0555316	-1.72578	3	0.0124546	-9.58356e-05
2	1	0	1	1	8995.17	0.00798443	0.00749377	-1.46963	4	0.00694374	-1.10131e-05
2	1	0	1	1	8998.6	0.0766554	0.0762517	-0.266247	4	0.00433623	-2.03018e-05
2	1	0	1	1	9002.07	0.145941	0.145499	0.274054	4	0.00445417	3.98746e-05
2	1	0	1	1	9005.45	0.21369	0.21333	0.592638	4	0.00596917	0.000126427
2	1	0	0	1	9008.84	0.281437	0.281008	0.819559	4	0.00838726	0.000230302
2	1	0	1	1	9012.23	0.349184	0.348711	1.00078	4	0.0114871	0.000348982
2	1	0	0	1	9015.65	0.417547	0.417011	1.16576	4	0.0152023	0.000486133
2	1	0	1	1	9019.04	0.485294	0.484811	1.33206	4	0.0194373	0.000645797
2	1	0	1	1	9022.42	0.553041	0.552523	1.517	4	0.0242633	0.000838175
2	1	0	0	1	9025.81	0.620788	0.620294	1.72253	4	0.0297528	0.00106847
[...]
2	0	0	1	1	9063.03	0.23463	0.234173	-1.59609	4	0.0275902	-0.00037376
2	0	0	0	1	9066.41	0.166881	0.166382	-1.6439	4	0.0220951	-0.000273514
2	0	0	0	1	9069.8	0.0991352	0.0986841	-1.6937	4	0.0164342	-0.000167141
2	0	0	1	1	9073.19	0.031388	0.0309372	-1.74154	4	0.0106082	-5.38783e-05
2	1	0	0	0	9076.38	0.0326198	0.0321264	-0.881914	5	0.00582673	-2.83327e-05
2	1	0	1	0	9079.85	0.102215	0.101821	-0.0263166	5	0.00445927	-2.67959e-06
2	1	0	1	0	9083.27	0.170578	0.170186	0.407161	5	0.00518331	6.92928e-05
2	1	0	0	0	9086.66	0.238325	0.237916	0.683918	5	0.0070666	0.000162715
2	1	0	1	0	9090.05	0.306072	0.305706	0.889489	5	0.00975319	0.000271922
2	1	0	0	0	9093.47	0.374435	0.3739	1.06274	5	0.013105	0.000397357
2	1	0	1	0	9096.85	0.442181	0.441658	1.22466	5	0.0169884	0.000540883
2	1	0	1	0	9100.24	0.509929	0.509442	1.39643	5	0.0214304	0.0007114
2	1	0	0	0	9103.63	0.577677	0.577172	1.58858	5	0.0264886	0.000916887
2	1	0	1	0	9107.02	0.645424	0.64491	1.80145	5	0.0322345	0.00116177
2	1	0	0	0	9110.4	0.713171	0.712664	2.0282	5	0.0387252	0.00144543
2	1	0	1	0	9113.79	0.780916	0.780422	2.27144	5	0.0460098	0.00177268
2	0	0	1	0	9116.98	0.755051	0.754558	1.05808	5	0.0518173	0.00079838
2	0	0	0	0	9120.46	0.685456	0.685029	0.00543631	5	0.0534676	3.72403e-06
2	0	0	1	0	9123.88	0.617093	0.616657	-0.590756	5	0.0523748	-0.000364294
2	0	0	0	0	9127.26	0.549346	0.548906	-0.964351	5	0.0496882	-0.000529338
2	0	0	0	0	9130.68	0.480983	0.480505	-1.22147	5	0.045916	-0.000586923
2	0	0	1	0	9134.07	0.413236	0.412662	-1.40045	5	0.041447	-0.000577911
2	0	0	0	0	9137.46	0.345489	0.34498	-1.50498	5	0.0364981	-0.000519188
2	0	0	1	0	9140.84	0.277741	0.277265	-1.56454	5	0.0312856	-0.000433792
2	0	0	0	0	9144.23	0.209994	0.209578	-1.61217	5	0.0258948	-0.000337875
2	0	0	0	0	9147.62	0.142247	0.141768	-1.66111	5	0.0203436	-0.000235491
2	0	0	1	0	9151.01	0.0744998	0.074079	-1.70992	5	0.0146259	-0.000126669
2	0	0	0	0	9154.39	0.00675266	0.0063459	-1.75724	5	0.0087449	-1.11513e-05
2	1	0	1	1	9157.58	0.0572551	0.0567973	-0.494276	6	0.00529522	-2.80735e-05
2	1	0	1	1	9161.09	0.127466	0.127083	0.161652	6	0.00485357	2.05432e-05
2	1	0	0	1	9164.48	0.195213	0.194849	0.520194	6	0.00606275	0.000101359
2	1	0	1	1	9167.87	0.26296	0.262561	0.764548	6	0.00826882	0.00020074
2	1	0	0	1	9171.25	0.330707	0.330266	0.954642	6	0.0112006	0.000315286
2	1	0	1	1	9174.67	0.39907	0.398554	1.12225	6	0.0147627	0.000447279
2	1	0	1	1	9178.06	0.466818	0.466267	1.28432	6	0.0188443	0.000598836
2	1	0	0	1	9181.45	0.534565	0.534079	1.46331	6	0.0235015	0.000781522
2	1	0	1	1	9184.83	0.602312	0.601823	1.66398	6	0.028801	0.00100142
2	1	0	0	1	9188.22	0.670059	0.669579	1.88185	6	0.0348105	0.00126005
2	1	0	1	1	9191.61	0.737806	0.737311	2.11251	6	0.0415804	0.00155758
2	0	0	1	1	9194.8	0.798163	0.797726	2.26456	6	0.0486888	0.0018065
2	0	0	0	1	9198.18	0.730416	0.729915	0.607224	6	0.0531217	0.000443222
2	0	0	1	1	9201.69	0.660205	0.659771	-0.250333	6	0.0535963	-0.000165162
2	0	0	0	1	9205.08	0.592459	0.592035	-0.744952	6	0.0518364	-0.000441038
2	0	0	0	1	9208.5	0.524095	0.523628	-1.07097	6	0.0486868	-0.000560789
2	0	0	1	1	9211.89	0.456348	0.455833	-1.29527	6	0.0446493	-0.000590426
2	0	0	0	1	9215.27	0.3886	0.388062	-1.44739	6	0.0399756	-0.000561679
2	0	0	1	1	9218.66	0.320853	0.320347	-1.52863	6	0.0349123	-0.000489694
2	0	0	0	1	9222.05	0.253106	0.252628	-1.58258	6	0.0296308	-0.000399805
2	0	0	0	1	9225.44	0.185359	0.184914	-1.62935	6	0.0241841	-0.00030129
2	0	0	1	1	9228.82	0.117612	0.117148	-1.67796	6	0.0185754	-0.000196569
2	0	0	0	1	9232.21	0.0498645	0.0494156	-1.7261	6	0.0128005	-8.52963e-05
2	0	0	1	1	9234.7	-0.000131913	-0.000211421	-1.76129	6	0.00846004	3.72373e-07