Folder: potentiostat-data-analysis/Input_data (part 3)

File: [1] JJ1-53 1st SC total meas_05_CP.mpt
EC-Lab ASCII FILE
Nb header lines : 52

Chronopotentiometry

Run on channel : 1 (SN 31418)
User :
CE vs. WE compliance from -10 V to 10 V
Electrode connection : standard
Ewe ctrl range : min = -10.00 V, max = 10.00 V
Safety Limits :
	Do not start on E overload
Acquisition started on : 01/25/2023 15:21:28
Technique started on : 01/25/2023 15:48:59
Saved on :
	File : [1] JJ1-53 1st SC total meas_05_CP.mpr
	Directory : C:\Users\Potentiostat\Documents\EC-Lab\Data\Supercapacitor until 2021 02\(230125) SC JJ1-53 54 lower CB better viscosity\
	Host : 127.0.0.1
Device : SP-150 (SN 1275)
Address : USB
EC-Lab for windows v11.16 (software)
Internet server v11.16 (firmware)
Command interpretor v11.16 (firmware)
Electrode material : Au/Pd
Initial state :
Electrolyte : NaCl (0.2M)
Comments : Fe(CN)63-/Fe(CN)64- 5.10-3 M
Reference electrode : SCE Saturated Calomel Electrode (0.241 V)
Electrode surface area : 0.001 cm²
Characteristic mass : 0.001 g
Equivalent Weight : 0.000 g/eq.
Density : 0.000 g/cm3
Cycle Definition : Charge/Discharge alternance
Ns                  0                   1
Is                  1.000               -1.000
unit Is             mA                  mA
vs.                 <None>              <None>
ts (h:m:s)          24:00:0.0000        24:00:0.0000
EM (V)              0.800               0.000
dQM                 24.000              24.000
unit dQM            mA.h                mA.h
record              Ewe                 Ewe
dEs (mV)            1.00                1.00
dts (s)             1.0000              1.0000
E range min (V)     -10.000             -10.000
E range max (V)     10.000              10.000
I Range             10 mA               10 mA
Bandwidth           5                   5
goto Ns'            0                   0
nc cycles           0                   5

mode	ox/red	error	control changes	Ns changes	counter inc.	Ns	time/s	control/mA	Ewe/V	I/mA	dQ/C	(Q-Qo)/C	half cycle	Q charge/discharge/mA.h	Energy charge/W.h	Energy discharge/W.h	Capacitance charge/µF	Capacitance discharge/µF	Q discharge/mA.h	Q charge/mA.h	Capacity/mA.h	Efficiency/%	cycle number	P/W
1	1	0	0	0	0	0	1651.07	1	0.120265	0.98936	0.0000000E+000	0.0000000E+000	0	0.000000000000000E+000	0.000000000000000E+000	0.000000000000000E+000	0.000000000000000E+000	0.000000000000000E+000	0.000000000000000E+000	0.000000000000000E+000	0.000000000000000E+000	0	0.000000000000000E+000	0.000118985
1	1	0	0	0	0	0	1654.96	1	0.290295	0.999171	0.00387759	0.00387759	0	0.00107711	2.48872e-07	0.000000000000000E+000	23132.7	0.000000000000000E+000	0.000000000000000E+000	0.00107711	0.00107711	0	0.000000000000000E+000	0.000290054
1	1	0	0	0	0	0	1664.79	1	0.458243	0.999362	0.0137001	0.0137001	0	0.00380559	1.29413e-06	0.000000000000000E+000	40826.1	0.000000000000000E+000	0.000000000000000E+000	0.00380559	0.00380559	0	0.000000000000000E+000	0.000457951
1	1	0	0	0	0	0	1681.54	1	0.626115	0.998725	0.0304403	0.0304403	0	0.00845565	3.85097e-06	0.000000000000000E+000	60464.2	0.000000000000000E+000	0.000000000000000E+000	0.00845565	0.00845565	0	0.000000000000000E+000	0.000625317
1	1	0	0	0	0	0	1711.87	1	0.793567	0.999044	0.0607412	0.0607412	0	0.0168725	9.91423e-06	0.000000000000000E+000	90537.4	0.000000000000000E+000	0.000000000000000E+000	0.0168725	0.0168725	0	0.000000000000000E+000	0.000792808
1	0	0	1	0	0	1	1721.45	-1	0.57996	-1.00184	-0.00788642	0.0545658	1	-0.00219067	1.02931e-05	-1.39397e-06	92242.3	49064.2	0.00219067	0.000000000000000E+000	0.00219067	0	0.000000000000000E+000	-0.000581026
1	0	0	1	0	0	1	1737.7	-1	0.412184	-1.00267	-0.0241677	0.0382844	1	-0.00671326	1.02931e-05	-3.62036e-06	92242.3	73567	0.00671326	0.000000000000000E+000	0.00671326	0	0.000000000000000E+000	-0.000413282
1	0	0	1	0	0	1	1754.97	-1	0.244885	-1.0019	-0.0414761	0.020976	1	-0.0115211	1.02931e-05	-5.20177e-06	92242.3	83652.8	0.0115211	0.000000000000000E+000	0.0115211	0	0.000000000000000E+000	-0.00024535
1	0	0	1	0	0	1	1771.27	-1	0.0776235	-1.00254	-0.0578216	0.00463055	1	-0.0160616	1.02931e-05	-5.93061e-06	92242.3	87202.4	0.0160616	0.000000000000000E+000	0.0160616	0	0.000000000000000E+000	-7.78205e-05
1	1	0	0	0	1	0	1780.47	1	0.151677	0.999108	0.001307	-0.00196371	2	0.000363057	4.54114e-08	-7.55798e-14	14607.1	0.000000000000000E+000	0.000000000000000E+000	0.000363057	0.000363057	0	1	0.000151542
1	1	0	0	0	1	0	1788.3	1	0.319645	0.999426	0.00913419	0.00586347	2	0.00253727	5.79024e-07	-7.55798e-14	35480.1	0.000000000000000E+000	0.000000000000000E+000	0.00253727	0.00253727	0	1	0.000319462
1	1	0	0	0	1	0	1801.13	1	0.48767	0.999426	0.0219501	0.0186794	2	0.00609724	2.03814e-06	-7.55798e-14	51590.2	0.000000000000000E+000	0.000000000000000E+000	0.00609724	0.00609724	0	1	0.00048739
1	1	0	0	0	1	0	1820.79	1	0.655255	0.998662	0.0415971	0.0383264	2	0.0115547	5.194e-06	-7.55798e-14	70140.3	0.000000000000000E+000	0.000000000000000E+000	0.0115547	0.0115547	0	1	0.000654379
1	0	0	1	0	1	1	1848.73	-1	0.718959	-1.00267	-6.47455e-05	0.0661093	3	-1.79849e-05	1.08792e-05	-1.30186e-08	94136	3001.19	1.79849e-05	0.000000000000000E+000	1.79849e-05	0	1	-0.000720876
1	0	0	1	0	1	1	1859.01	-1	0.550056	-1.00311	-0.010366	0.0558081	3	-0.00287943	1.08792e-05	-1.78107e-06	94136	54420.1	0.00287943	0.000000000000000E+000	0.00287943	0	1	-0.000551767
1	0	0	1	0	1	1	1875.77	-1	0.382547	-1.00209	-0.0271636	0.0390105	3	-0.00754544	1.08792e-05	-3.94367e-06	94136	75878.1	0.00754544	0.000000000000000E+000	0.00754544	0	1	-0.000383347
1	0	0	1	0	1	1	1892.78	-1	0.21519	-1.0026	-0.0442177	0.0219564	3	-0.0122827	1.08792e-05	-5.36308e-06	94136	84168.6	0.0122827	0.000000000000000E+000	0.0122827	0	1	-0.00021575
1	0	0	1	0	1	1	1909.18	-1	0.0478148	-1.00203	-0.0606542	0.00551986	3	-0.0168484	1.08792e-05	-5.95825e-06	94136	87559.2	0.0168484	0.000000000000000E+000	0.0168484	0	1	-4.79118e-05
1	1	0	0	0	0	0	1916.38	1	0.181773	0.999362	0.00230293	0.00291637	4	0.000639702	9.19045e-08	-7.81988e-14	19233.9	0.000000000000000E+000	0.000000000000000E+000	0.000639702	0.000639702	0	2	0.000181657
1	1	0	0	0	0	0	1925.1	1	0.349778	0.999745	0.0110146	0.0116281	4	0.00305962	7.55404e-07	-7.81988e-14	38280	0.000000000000000E+000	0.000000000000000E+000	0.00305962	0.00305962	0	2	0.000349689
1	1	0	0	0	0	0	1938.91	1	0.517918	0.999044	0.0248142	0.0254276	4	0.00689283	2.44227e-06	-7.81988e-14	54431.6	0.000000000000000E+000	0.000000000000000E+000	0.00689283	0.00689283	0	2	0.000517423
1	1	0	0	0	0	0	1960.14	1	0.684969	0.99949	0.0460166	0.04663	4	0.0127824	6.02526e-06	-7.81988e-14	73871.2	0.000000000000000E+000	0.000000000000000E+000	0.0127824	0.0127824	0	2	0.000684619
1	0	0	1	0	0	1	1983.8	-1	0.688291	-1.00216	-0.000856351	0.0685612	5	-0.000237874	1.07559e-05	-1.66932e-07	93264.1	16391	0.000237874	0.000000000000000E+000	0.000237874	0	2	-0.000689775
1	0	0	1	0	0	1	1995.82	-1	0.521412	-1.00254	-0.012905	0.0565126	5	-0.00358472	1.07559e-05	-2.15662e-06	93264.1	58893.5	0.00358472	0.000000000000000E+000	0.00358472	0	2	-0.000522736
1	0	0	1	0	0	1	2012.85	-1	0.354533	-1.00241	-0.0299715	0.0394461	5	-0.00832541	1.07559e-05	-4.22404e-06	93264.1	77645.6	0.00832541	0.000000000000000E+000	0.00832541	0	2	-0.000355388
1	0	0	1	0	0	1	2029.59	-1	0.187349	-1.00305	-0.0467541	0.0226634	5	-0.0129873	1.07559e-05	-5.49061e-06	93264.1	84517.6	0.0129873	0.000000000000000E+000	0.0129873	0	2	-0.000187919
[...]
1	1	0	0	0	0	0	2181.78	1	0.0722384	0.998279	4.39083e-06	0.00701277	8	1.21964e-06	8.41498e-11	-7.52685e-14	424.283	0.000000000000000E+000	0.000000000000000E+000	1.21964e-06	1.21964e-06	0	4	7.21141e-05
1	1	0	0	0	0	0	2186.56	1	0.241161	0.999554	0.00478613	0.0117945	8	0.00132948	2.39372e-07	-7.52685e-14	26696.1	0.000000000000000E+000	0.000000000000000E+000	0.00132948	0.00132948	0	4	0.000241053
1	1	0	0	0	0	0	2197	1	0.409816	0.999171	0.0152169	0.0222253	8	0.00422692	1.20306e-06	-7.52685e-14	43734.7	0.000000000000000E+000	0.000000000000000E+000	0.00422692	0.00422692	0	4	0.000409476
1	1	0	0	0	0	0	2212.91	1	0.577516	0.999171	0.031114	0.0381223	8	0.00864277	3.4115e-06	-7.52685e-14	60340.8	0.000000000000000E+000	0.000000000000000E+000	0.00864277	0.00864277	0	4	0.000577037
1	1	0	0	0	0	0	2237.89	1	0.744586	0.999108	0.0560661	0.0630745	8	0.0155739	8.0438e-06	-7.52685e-14	82123.2	0.000000000000000E+000	0.000000000000000E+000	0.0155739	0.0155739	0	4	0.000743922
1	0	0	1	0	0	1	2253.83	-1	0.628884	-1.00177	-0.00406898	0.0708745	9	-0.00113027	1.05953e-05	-7.51787e-07	92068.6	36469.4	0.00113027	0.000000000000000E+000	0.00113027	0	4	-0.000629999
1	0	0	1	0	0	1	2268.39	-1	0.461203	-1.00298	-0.0186635	0.05628	9	-0.0051843	1.05953e-05	-2.93631e-06	92068.6	66833.4	0.0051843	0.000000000000000E+000	0.0051843	0	4	-0.000462579
1	0	0	1	0	0	1	2285.68	-1	0.293655	-1.00228	-0.0359937	0.0389498	9	-0.00999826	1.05953e-05	-4.75149e-06	92068.6	80558.8	0.00999826	0.000000000000000E+000	0.00999826	0	4	-0.000294326
1	0	0	1	0	0	1	2302.16	-1	0.125554	-1.00241	-0.0525059	0.0224377	9	-0.014585	1.05953e-05	-5.71177e-06	92068.6	85388.9	0.014585	0.000000000000000E+000	0.014585	0	4	-0.000125857
1	1	0	0	0	1	0	2315.01	1	0.10388	0.999171	0.000204415	0.00996679	10	5.6782e-05	5.32153e-09	-7.57872e-14	4839.25	0.000000000000000E+000	0.000000000000000E+000	5.6782e-05	5.6782e-05	0	5	0.000103794
1	1	0	0	0	1	0	2321.14	1	0.272421	0.999299	0.00633378	0.0160962	10	0.00175938	3.50398e-07	-7.57872e-14	30048.9	0.000000000000000E+000	0.000000000000000E+000	0.00175938	0.00175938	0	5	0.00027223
1	1	0	0	0	1	0	2332.4	1	0.440331	0.998279	0.0175852	0.0273476	10	0.00488479	1.48475e-06	-7.57872e-14	46436.7	0.000000000000000E+000	0.000000000000000E+000	0.00488479	0.00488479	0	5	0.000439573
1	1	0	0	0	1	0	2349.52	1	0.607611	0.99847	0.0346879	0.0444502	10	0.00963551	4.00493e-06	-7.57872e-14	63534	0.000000000000000E+000	0.000000000000000E+000	0.00963551	0.00963551	0	5	0.000606682
1	1	0	0	0	1	0	2377.04	1	0.77598	0.998407	0.062184	0.0719464	10	0.0172733	9.34737e-06	-7.57872e-14	87050.8	0.000000000000000E+000	0.000000000000000E+000	0.0172733	0.0172733	0	5	0.000774743
1	0	0	1	0	1	1	2388.81	-1	0.596516	-1.0033	-0.00634437	0.071033	11	-0.00176233	1.05371e-05	-1.13801e-06	91614.3	44076.5	0.00176233	0.000000000000000E+000	0.00176233	0	5	-0.000598486
1	0	0	1	0	1	1	2404.33	-1	0.428931	-1.00247	-0.0219062	0.0554711	11	-0.00608507	1.05371e-05	-3.33363e-06	91614.3	70319.2	0.00608507	0.000000000000000E+000	0.00608507	0	5	-0.000429992
1	0	0	1	0	1	1	2421.42	-1	0.261842	-1.00292	-0.0390326	0.0383448	11	-0.0108424	1.05371e-05	-4.9777e-06	91614.3	81553.2	0.0108424	0.000000000000000E+000	0.0108424	0	5	-0.000262606
1	0	0	1	0	1	1	2437.77	-1	0.0947716	-1.00216	-0.0554134	0.021964	11	-0.0153926	1.05371e-05	-5.78636e-06	91614.3	85821.1	0.0153926	0.000000000000000E+000	0.0153926	0	5	-9.49759e-05
1	0	0	1	0	1	1	2447.38	-1	0.000208689	-1.00107	-0.0650528	0.0123246	11	-0.0180702	1.05371e-05	-5.91091e-06	91614.3	87879.7	0.0180702	0.000000000000000E+000	0.0180702	96.2106	5	-2.08913e-07

File: [1] JJ1-53 1st SC total meas_06_CP.mpt
EC-Lab ASCII FILE
Nb header lines : 52

Chronopotentiometry

Run on channel : 1 (SN 31418)
User :
CE vs. WE compliance from -10 V to 10 V
Electrode connection : standard
Ewe ctrl range : min = -10.00 V, max = 10.00 V
Safety Limits :
	Do not start on E overload
Acquisition started on : 01/25/2023 15:21:28
Technique started on : 01/25/2023 16:02:15
Saved on :
	File : [1] JJ1-53 1st SC total meas_06_CP.mpr
	Directory : C:\Users\Potentiostat\Documents\EC-Lab\Data\Supercapacitor until 2021 02\(230125) SC JJ1-53 54 lower CB better viscosity\
	Host : 127.0.0.1
Device : SP-150 (SN 1275)
Address : USB
EC-Lab for windows v11.16 (software)
Internet server v11.16 (firmware)
Command interpretor v11.16 (firmware)
Electrode material : Au/Pd
Initial state :
Electrolyte : NaCl (0.2M)
Comments : Fe(CN)63-/Fe(CN)64- 5.10-3 M
Reference electrode : SCE Saturated Calomel Electrode (0.241 V)
Electrode surface area : 0.001 cm²
Characteristic mass : 0.001 g
Equivalent Weight : 0.000 g/eq.
Density : 0.000 g/cm3
Cycle Definition : Charge/Discharge alternance
Ns                  0                   1
Is                  0.500               -0.500
unit Is             mA                  mA
vs.                 <None>              <None>
ts (h:m:s)          24:00:0.0000        24:00:0.0000
EM (V)              0.800               0.000
dQM                 12.000              12.000
unit dQM            mA.h                mA.h
record              Ewe                 Ewe
dEs (mV)            1.00                1.00
dts (s)             1.0000              1.0000
E range min (V)     -10.000             -10.000
E range max (V)     10.000              10.000
I Range             10 mA               10 mA
Bandwidth           5                   5
goto Ns'            0                   0
nc cycles           0                   2

mode	ox/red	error	control changes	Ns changes	counter inc.	Ns	time/s	control/mA	Ewe/V	I/mA	dQ/C	(Q-Qo)/C	half cycle	Q charge/discharge/mA.h	Energy charge/W.h	Energy discharge/W.h	Capacitance charge/µF	Capacitance discharge/µF	Q discharge/mA.h	Q charge/mA.h	Capacity/mA.h	Efficiency/%	cycle number	P/W
1	1	0	0	0	0	0	2447.49	0.5	0.0617987	0.494125	0.0000000E+000	0.0000000E+000	0	0.000000000000000E+000	0.000000000000000E+000	0.000000000000000E+000	0.000000000000000E+000	0.000000000000000E+000	0.000000000000000E+000	0.000000000000000E+000	0.000000000000000E+000	0	0.000000000000000E+000	3.05363e-05
1	1	0	0	0	0	0	2451.05	0.5	0.152479	0.498585	0.0017798	0.0017798	0	0.000494389	5.9226e-08	0.000000000000000E+000	19847.4	0.000000000000000E+000	0.000000000000000E+000	0.000494389	0.000494389	0	0.000000000000000E+000	7.60239e-05
1	1	0	0	0	0	0	2458.93	0.5	0.242478	0.497565	0.00570805	0.00570805	0	0.00158557	2.79112e-07	0.000000000000000E+000	31769	0.000000000000000E+000	0.000000000000000E+000	0.00158557	0.00158557	0	0.000000000000000E+000	0.000120649
1	1	0	0	0	0	0	2470.15	0.5	0.331733	0.498648	0.0112989	0.0112989	0	0.00313859	7.29126e-07	0.000000000000000E+000	42014.7	0.000000000000000E+000	0.000000000000000E+000	0.00313859	0.00313859	0	0.000000000000000E+000	0.000165418
1	1	0	0	0	0	0	2484.77	0.5	0.421388	0.499094	0.0185896	0.0185896	0	0.00516377	1.49618e-06	0.000000000000000E+000	51841.8	0.000000000000000E+000	0.000000000000000E+000	0.00516377	0.00516377	0	0.000000000000000E+000	0.000210312
1	1	0	0	0	0	0	2503.11	0.5	0.511215	0.498712	0.0277339	0.0277339	0	0.00770385	2.68639e-06	0.000000000000000E+000	61849.4	0.000000000000000E+000	0.000000000000000E+000	0.00770385	0.00770385	0	0.000000000000000E+000	0.000254949
1	1	0	0	0	0	0	2526.74	0.5	0.600947	0.498903	0.039517	0.039517	0	0.0109769	4.51474e-06	0.000000000000000E+000	73432.3	0.000000000000000E+000	0.000000000000000E+000	0.0109769	0.0109769	0	0.000000000000000E+000	0.000299814
1	1	0	0	0	0	0	2558.02	0.5	0.690392	0.498202	0.0551089	0.0551089	0	0.015308	7.32278e-06	0.000000000000000E+000	87810.8	0.000000000000000E+000	0.000000000000000E+000	0.015308	0.015308	0	0.000000000000000E+000	0.000343955
1	1	0	0	0	0	0	2602.17	0.5	0.779665	0.499158	0.0771211	0.0771211	0	0.0214225	1.18393e-05	0.000000000000000E+000	107582	0.000000000000000E+000	0.000000000000000E+000	0.0214225	0.0214225	0	0.000000000000000E+000	0.000389176
1	0	0	1	0	0	1	2620.76	-0.5	0.702021	-0.503226	-0.00270821	0.080998	1	-0.000752281	1.32853e-05	-5.45224e-07	113573	39715.9	0.000752281	0.000000000000000E+000	0.000752281	0	0.000000000000000E+000	-0.000353275
1	0	0	1	0	0	1	2636.92	-0.5	0.612442	-0.502588	-0.0108292	0.072877	1	-0.00300811	1.32853e-05	-2.01983e-06	113573	68639.9	0.00300811	0.000000000000000E+000	0.00300811	0	0.000000000000000E+000	-0.000307806
1	0	0	1	0	0	1	2657.96	-0.5	0.522749	-0.503226	-0.0214015	0.0623046	1	-0.00594487	1.32853e-05	-3.68155e-06	113573	86484.1	0.00594487	0.000000000000000E+000	0.00594487	0	0.000000000000000E+000	-0.000263061
1	0	0	1	0	0	1	2681.09	-0.5	0.433017	-0.50176	-0.0330224	0.0506838	1	-0.00917289	1.32853e-05	-5.22239e-06	113573	97933	0.00917289	0.000000000000000E+000	0.00917289	0	0.000000000000000E+000	-0.000217271
1	0	0	1	0	0	1	2702.49	-0.5	0.343687	-0.503034	-0.0437766	0.0399295	1	-0.0121602	1.32853e-05	-6.38288e-06	113573	102636	0.0121602	0.000000000000000E+000	0.0121602	0	0.000000000000000E+000	-0.000172886
1	0	0	1	0	0	1	2723.17	-0.5	0.25407	-0.502397	-0.054171	0.0295352	1	-0.0150475	1.32853e-05	-7.24426e-06	113573	104954	0.0150475	0.000000000000000E+000	0.0150475	0	0.000000000000000E+000	-0.000127644
1	0	0	1	0	0	1	2743.75	-0.5	0.164243	-0.502397	-0.0645125	0.0191937	1	-0.0179201	1.32853e-05	-7.84386e-06	113573	106462	0.0179201	0.000000000000000E+000	0.0179201	0	0.000000000000000E+000	-8.2515e-05
1	0	0	1	0	0	1	2764.29	-0.5	0.0749119	-0.502397	-0.074832	0.00887413	1	-0.0207867	1.32853e-05	-8.18474e-06	113573	107626	0.0207867	0.000000000000000E+000	0.0207867	0	0.000000000000000E+000	-3.76355e-05
1	1	0	0	0	1	0	2782.18	0.5	0.0445303	0.498457	2.53264e-05	-6.43296e-05	2	7.03512e-06	2.92076e-10	-2.3781e-14	1894.74	0.000000000000000E+000	0.000000000000000E+000	7.03512e-06	7.03512e-06	0	1	2.21964e-05
1	1	0	0	0	1	0	2787.67	0.5	0.134529	0.498648	0.00275957	0.00266991	2	0.000766547	7.54211e-08	-2.3781e-14	26696.8	0.000000000000000E+000	0.000000000000000E+000	0.000766547	0.000766547	0	1	6.70828e-05
1	1	0	0	0	1	0	2797.42	0.5	0.22407	0.498202	0.00762093	0.00753127	2	0.00211692	3.21484e-07	-2.3781e-14	39505.5	0.000000000000000E+000	0.000000000000000E+000	0.00211692	0.00211692	0	1	0.000111632
1	1	0	0	0	1	0	2810.15	0.5	0.314126	0.498648	0.0139708	0.0138812	2	0.00388079	7.99952e-07	-2.3781e-14	49373.2	0.000000000000000E+000	0.000000000000000E+000	0.00388079	0.00388079	0	1	0.000156639
1	1	0	0	0	1	0	2825.81	0.5	0.404335	0.499413	0.0217787	0.0216891	2	0.00604965	1.58338e-06	-2.3781e-14	58360.9	0.000000000000000E+000	0.000000000000000E+000	0.00604965	0.00604965	0	1	0.00020193
1	1	0	0	0	1	0	2844.77	0.5	0.494296	0.498457	0.0312322	0.0311425	2	0.00867561	2.7687e-06	-2.3781e-14	67436.6	0.000000000000000E+000	0.000000000000000E+000	0.00867561	0.00867561	0	1	0.000246385
1	1	0	0	0	1	0	2868.48	0.5	0.583875	0.498394	0.0430528	0.0429631	2	0.0119591	4.5467e-06	-2.3781e-14	77893.6	0.000000000000000E+000	0.000000000000000E+000	0.0119591	0.0119591	0	1	0.000291
[...]
1	0	0	1	0	1	1	3128.68	-0.5	0.00253839	-0.503098	-0.0835511	0.00624475	3	-0.0232086	1.37302e-05	-8.24789e-06	116957	108791	0.0232086	0.000000000000000E+000	0.0232086	0	1	-1.27706e-06
1	1	0	0	0	0	0	3133.34	0.5	0.117228	0.498585	0.00200754	0.00793179	4	0.00055765	4.90549e-08	-2.63277e-14	23217.4	0.000000000000000E+000	0.000000000000000E+000	0.00055765	0.00055765	0	2	5.84483e-05
1	1	0	0	0	0	0	3142.44	0.5	0.206845	0.497756	0.00654211	0.0124664	4	0.00181725	2.57315e-07	-2.63277e-14	37153.3	0.000000000000000E+000	0.000000000000000E+000	0.00181725	0.00181725	0	2	0.000102959
1	1	0	0	0	0	0	3154.59	0.5	0.297188	0.498457	0.012602	0.0185262	4	0.00350055	6.85501e-07	-2.63277e-14	47300	0.000000000000000E+000	0.000000000000000E+000	0.00350055	0.00350055	0	2	0.000148136
1	1	0	0	0	0	0	3169.55	0.5	0.387015	0.499349	0.0200596	0.0259839	4	0.00557211	1.39846e-06	-2.63277e-14	56307	0.000000000000000E+000	0.000000000000000E+000	0.00557211	0.00557211	0	2	0.000193256
1	1	0	0	0	0	0	3187.66	0.5	0.476594	0.498457	0.0290878	0.0350121	4	0.00807995	2.48634e-06	-2.63277e-14	65243.7	0.000000000000000E+000	0.000000000000000E+000	0.00807995	0.00807995	0	2	0.000237562
1	1	0	0	0	0	0	3210.27	0.5	0.566192	0.498712	0.0403596	0.0462839	4	0.011211	4.12609e-06	-2.63277e-14	75377.8	0.000000000000000E+000	0.000000000000000E+000	0.011211	0.011211	0	2	0.000282367
1	1	0	0	0	0	0	3239.98	0.5	0.656229	0.497502	0.0551736	0.0610979	4	0.015326	6.65145e-06	-2.63277e-14	88211.7	0.000000000000000E+000	0.000000000000000E+000	0.015326	0.015326	0	2	0.000326475
1	1	0	0	0	0	0	3278.26	0.5	0.745866	0.498967	0.0742583	0.0801825	4	0.0206273	1.03809e-05	-2.63277e-14	103843	0.000000000000000E+000	0.000000000000000E+000	0.0206273	0.0206273	0	2	0.000372162
1	0	0	1	0	0	1	3310.03	-0.5	0.736031	-0.502015	-0.000703845	0.0946217	5	-0.000195512	1.36392e-05	-1.4571e-07	116258	20496.2	0.000195512	0.000000000000000E+000	0.000195512	0	2	-0.000369499
1	0	0	1	0	0	1	3323.2	-0.5	0.646109	-0.502716	-0.00732394	0.0880016	5	-0.00203443	1.36392e-05	-1.40635e-06	116258	58939.1	0.00203443	0.000000000000000E+000	0.00203443	0	2	-0.000324809
1	0	0	1	0	0	1	3342.53	-0.5	0.556491	-0.502525	-0.0170374	0.0782881	5	-0.00473261	1.36392e-05	-3.023e-06	116258	79658.8	0.00473261	0.000000000000000E+000	0.00473261	0	2	-0.000279651
1	0	0	1	0	0	1	3364.94	-0.5	0.467123	-0.502971	-0.0282962	0.0670293	5	-0.00786006	1.36392e-05	-4.62009e-06	116258	93310.2	0.00786006	0.000000000000000E+000	0.00786006	0	2	-0.000234949
1	0	0	1	0	0	1	3386.95	-0.5	0.377257	-0.502206	-0.0393555	0.05597	5	-0.0109321	1.36392e-05	-5.91798e-06	116258	100112	0.0109321	0.000000000000000E+000	0.0109321	0	2	-0.000189461
1	0	0	1	0	0	1	3407.88	-0.5	0.287564	-0.50227	-0.0498726	0.0454529	5	-0.0138535	1.36392e-05	-6.88716e-06	116258	103297	0.0138535	0.000000000000000E+000	0.0138535	0	2	-0.000144435
1	0	0	1	0	0	1	3428.97	-0.5	0.197985	-0.502015	-0.0604745	0.0348511	5	-0.0167985	1.36392e-05	-7.60061e-06	116258	105653	0.0167985	0.000000000000000E+000	0.0167985	0	2	-9.93914e-05
1	0	0	1	0	0	1	3449.98	-0.5	0.108444	-0.502461	-0.0710319	0.0242937	5	-0.0197311	1.36392e-05	-8.04826e-06	116258	107311	0.0197311	0.000000000000000E+000	0.0197311	0	2	-5.4489e-05
1	0	0	1	0	0	1	3471.43	-0.5	0.0186171	-0.502015	-0.0818107	0.0135148	5	-0.0227252	1.36392e-05	-8.23596e-06	116258	108826	0.0227252	0.000000000000000E+000	0.0227252	0	2	-9.34608e-06
1	0	0	1	0	0	1	3476.01	-0.5	0.000265977	-0.502525	-0.0841103	0.0112153	5	-0.023364	1.36392e-05	-8.24156e-06	116258	109219	0.023364	0.000000000000000E+000	0.023364	94.0817	2	-1.3366e-07