Folder: potentiostat-data-analysis/Input_data

Note: README.md
# CV, GCD and EIS Data Analysis
This code is designed to analyze the data measured by a potentiostat: 
cyclic voltammetry (CV), galvanostatic charge and discharge (GCD), and electrochemical impedance spectroscopy (EIS). 
It reads primary data from the raw files, extracts the primary parameters, and then calculates the performance parameters such as capacitance, energy, and power. 
This code is optimized for Biologic potentiostat such as SP-150, but can be applied to other files with some modifications (i.e. headerline number and column name).

## How to use
Install pandas and matplotlib libraries.
Change the AL_mass and Area_two_elec according to the measured value.
Place CV, GCD, and EIS data files in the "Input_data" folder.
Run the script to generate the plots and summarizing table.

## Functions
The code provides the following functions:

read_file_CV(filename, headerline): imports CV data file, cleans it, and extracts primary parameters.\
calculate_sec_param_CV(data, scan_rate, Vmax, AL_mass, Area_two_elec): calculates performance parameters from a CV curve.\
read_file_GCD(filename, headerline): imports GCD data file, cleans it, and extracts primary parameters.\
calculate_sec_param_GCD(data, I_gcd, Q_disc, Vmax, AL_mass, Area_two_elec): calculates performance parameters from a GCD curve.\

## Note
The headerline argument of the read_file_CV, read_file_GCD, and filtering_EIS functions may need to be changed depending on the file condition.
Their default values are 52, 48, 58, respectively.
If an error still occurs, also change the numbers of # at the headerline-# parts.

Example results are shown in the CV-GCD-EIS combined.ipynb

File: [1] JJ1-53 1st SC total meas_01_PEIS.mpt
EC-Lab ASCII FILE
Nb header lines : 62

Potentio Electrochemical Impedance Spectroscopy

Run on channel : 1 (SN 31418)
User :
CE vs. WE compliance from -10 V to 10 V
Electrode connection : standard
Ewe ctrl range : min = -10.00 V, max = 10.00 V
Safety Limits :
	Do not start on E overload
Acquisition started on : 01/25/2023 15:21:28
Technique started on : 01/25/2023 15:26:33
Saved on :
	File : [1] JJ1-53 1st SC total meas_01_PEIS.mpr
	Directory : C:\Users\Potentiostat\Documents\EC-Lab\Data\Supercapacitor until 2021 02\(230125) SC JJ1-53 54 lower CB better viscosity\
	Host : 127.0.0.1
Device : SP-150 (SN 1275)
Address : USB
EC-Lab for windows v11.16 (software)
Internet server v11.16 (firmware)
Command interpretor v11.16 (firmware)
Electrode material : Au/Pd
Initial state :
Electrolyte : NaCl (0.2M)
Comments : Fe(CN)63-/Fe(CN)64- 5.10-3 M
Reference electrode : SCE Saturated Calomel Electrode (0.241 V)
Electrode surface area : 0.001 cm²
Characteristic mass : 0.001 g
Equivalent Weight : 0.000 g/eq.
Density : 0.000 g/cm3
Cycle Definition : Charge/Discharge alternance
Mode                Single sine
E (V)               0.4000
vs.                 Ref
tE (h:m:s)          0:05:0.0000
record              0
dI                  0.000
unit dI             mA
dt (s)              0.000
fi                  1.000
unit fi             MHz
ff                  100.000
unit ff             mHz
Nd                  10
Points              per decade
spacing             Logarithmic
Va (mV)             5.0
pw                  5.00
Na                  5
corr                1
E range min (V)     -10.000
E range max (V)     10.000
I Range             Auto
Bandwidth           5
nc cycles           0
goto Ns'            0
nr cycles           0
inc. cycle          0

freq/Hz	Re(Z)/Ohm	-Im(Z)/Ohm	|Z|/Ohm	Phase(Z)/deg	time/s	<Ewe>/V	<I>/mA	Cs/µF	Cp/µF	cycle number	I Range	|Ewe|/V	|I|/A	Re(Y)/Ohm-1	Im(Y)/Ohm-1	|Y|/Ohm-1	Phase(Y)/deg
1.00002e+06	71.2381	49.0437	86.4878	-34.5454	305.183	0.40002	0.0267438	0.0032451	0.00104348	1	11	0.000429497	4.96598e-06	0.00952362	0.00655652	0.0115623	34.5454
626758	52.1278	-3.74275	52.262	4.10677	307.796	0.399473	0.0213961	-0.0678468	-0.000347969	1	11	0.00270491	5.17567e-05	0.0190852	-0.00137031	0.0191344	-4.10677
392832	32.0027	-0.747397	32.0114	1.33786	310.572	0.399691	0.0384431	-0.542078	-0.000295499	1	10	0.00458475	0.000143223	0.0312304	-0.000729361	0.0312389	-1.33786
246211	27.876	0.0733529	27.8761	-0.150768	313.186	0.399708	0.0380535	8.81243	6.1019e-05	1	10	0.00536018	0.000192286	0.0358729	9.43957e-05	0.035873	0.150768
154316	26.747	0.431838	26.7505	-0.924977	315.8	0.399719	0.0387955	2.38829	0.000622395	1	10	0.00536296	0.000200481	0.0373776	0.000603473	0.0373825	0.924977
96718.7	26.4619	0.638364	26.4696	-1.38193	318.414	0.399745	0.0386724	2.57775	0.00149928	1	10	0.00521948	0.000197187	0.0377681	0.000911112	0.0377791	1.38193
60615.2	26.4953	0.773993	26.5066	-1.67328	321.028	0.399747	0.0379603	3.39235	0.00289247	1	10	0.00506996	0.000191272	0.0377104	0.00110162	0.0377265	1.67328
37998	26.6277	0.929863	26.644	-2	323.641	0.399737	0.0382903	4.50443	0.00548631	1	10	0.00506018	0.000189918	0.0375091	0.00130985	0.0375319	2
23808.6	26.894	1.03441	26.9139	-2.20265	326.123	0.399738	0.0374868	6.4624	0.00954613	1	10	0.00509862	0.000189442	0.0371281	0.00142804	0.0371556	2.20265
14921.9	27.1583	1.06776	27.1793	-2.25149	328.473	0.399742	0.037703	9.98901	0.0154168	1	10	0.00537213	0.000197655	0.0367643	0.00144543	0.0367927	2.25149
9354.92	27.4967	1.17551	27.5218	-2.44797	330.889	0.399776	0.0393006	14.4728	0.026403	1	10	0.00548807	0.000199408	0.0363016	0.00155193	0.0363348	2.44797
5888.1	27.8208	1.22117	27.8476	-2.51333	334.401	0.399741	0.0357121	22.1345	0.0425643	1	10	0.00504763	0.000181259	0.0358752	0.00157471	0.0359097	2.51333
3676.18	28.2009	1.30402	28.231	-2.64749	338.62	0.399761	0.0363851	33.2002	0.0708359	1	10	0.00506285	0.000179336	0.0353842	0.00163617	0.035422	2.64749
2302.79	28.5954	1.45079	28.6321	-2.90442	342.842	0.399769	0.0360048	47.6389	0.12231	1	10	0.00506965	0.000177062	0.0348809	0.00176969	0.0349258	2.90442
1443.61	28.9729	1.56593	29.0152	-3.09371	347.068	0.399752	0.0360029	70.4039	0.205064	1	10	0.00506697	0.000174631	0.0344144	0.00186003	0.0344647	3.09371
905.289	29.4942	1.7783	29.5478	-3.45037	351.293	0.399759	0.0352628	98.8615	0.358087	1	10	0.00506808	0.000171522	0.0337821	0.00203683	0.0338435	3.45037
567.36	29.9549	1.88073	30.0139	-3.59262	355.754	0.399742	0.0229288	149.154	0.585655	1	11	0.0050715	0.000168971	0.0332524	0.00208776	0.0333179	3.59262
355.569	30.5345	2.04948	30.6033	-3.83994	359.975	0.399746	0.0227501	218.4	0.979504	1	11	0.00507114	0.000165706	0.0326029	0.00218831	0.0326763	3.83994
222.79	31.156	2.23894	31.2364	-4.11033	364.204	0.399744	0.0225099	319.068	1.63925	1	11	0.00506892	0.000162276	0.0319316	0.00229467	0.032014	4.11033
139.687	31.8723	2.44742	31.9661	-4.39103	368.413	0.399752	0.0226454	465.539	2.72893	1	11	0.00507186	0.000158664	0.0311913	0.00239513	0.0312832	4.39103
87.4534	32.6131	2.65524	32.721	-4.65455	372.683	0.399741	0.0222028	685.394	4.5133	1	11	0.00507043	0.00015496	0.0304606	0.00247999	0.0305614	4.65455
54.8771	33.3571	2.84275	33.478	-4.87108	376.928	0.399751	0.0220699	1020.21	7.35613	1	11	0.00506236	0.000151214	0.0297625	0.00253641	0.0298704	4.87108
34.3946	34.2262	3.07912	34.3644	-5.14072	381.256	0.399743	0.0217971	1502.8	12.0653	1	11	0.00506642	0.000147432	0.0289829	0.00260741	0.0290999	5.14072
21.5517	35.1273	3.35809	35.2874	-5.46075	385.178	0.399733	0.0216983	2199.1	19.9154	1	11	0.00506529	0.000143544	0.0282101	0.00269682	0.0283387	5.46075
13.5009	36.1324	3.69563	36.3209	-5.83991	389.381	0.399752	0.0216596	3189.85	33.0242	1	11	0.00506894	0.00013956	0.0273894	0.00280139	0.0275323	5.83991
8.45508	37.1929	4.09326	37.4174	-6.28041	393.836	0.399753	0.0215881	4598.68	55.033	1	11	0.00506993	0.000135497	0.0265651	0.00292362	0.0267255	6.28041
5.3038	38.3156	4.61049	38.592	-6.86138	400.793	0.399754	0.0211838	6508.57	92.8936	1	11	0.00506791	0.00013132	0.0257265	0.00309566	0.0259121	6.86138
3.32447	39.5732	5.27196	39.9228	-7.58829	411.763	0.399754	0.0208891	9080.84	158.354	1	11	0.00506924	0.000126976	0.024829	0.00330773	0.0250484	7.58829
2.08167	40.9485	6.15309	41.4082	-8.54556	429.155	0.399755	0.0203224	12425.6	274.365	1	11	0.00506957	0.000122429	0.0238817	0.00358856	0.0241498	8.54556
1.30687	42.471	7.40526	43.1118	-9.89069	458.046	0.399755	0.0182788	16445.4	485.216	1	12	0.00507118	0.000117629	0.0228508	0.00398427	0.0231955	9.89069
0.818491	44.2103	9.17296	45.1519	-11.7217	502.023	0.399759	0.0171541	21198.1	874.909	1	12	0.00507011	0.00011229	0.0216856	0.00449943	0.0221475	11.7217
0.512698	46.2159	11.7992	47.6983	-14.322	572.106	0.399756	0.0155632	26309	1609.92	1	12	0.00507036	0.000106301	0.0203135	0.00518618	0.0209651	14.322
0.321502	48.649	15.5796	51.0828	-17.7574	683.812	0.399754	0.0138131	31774.6	2955.59	1	12	0.00507036	9.92578e-05	0.0186434	0.00597046	0.0195761	17.7574
0.201436	51.712	21.2011	55.8893	-22.2929	861.961	0.399756	0.0118955	37266.9	5362.71	1	12	0.00507019	9.07184e-05	0.0165552	0.00678737	0.0178925	22.2929
0.126195	55.6837	29.4332	62.984	-27.86	1146.01	0.399757	0.0098542	42848.9	9357.37	1	12	0.0050689	8.04792e-05	0.0140368	0.00741954	0.015877	27.86
0.0999105	58.1621	34.8532	67.8054	-30.9318	1346.38	0.399751	0.00882123	45705.3	12076	1	12	0.0050695	7.47654e-05	0.0126506	0.00758078	0.0147481	30.9318

File: [1] JJ1-53 1st SC total meas_02_CP.mpt
EC-Lab ASCII FILE
Nb header lines : 52

Chronopotentiometry

Run on channel : 1 (SN 31418)
User :
CE vs. WE compliance from -10 V to 10 V
Electrode connection : standard
Ewe ctrl range : min = -10.00 V, max = 10.00 V
Safety Limits :
	Do not start on E overload
Acquisition started on : 01/25/2023 15:21:28
Technique started on : 01/25/2023 15:43:54
Saved on :
	File : [1] JJ1-53 1st SC total meas_02_CP.mpr
	Directory : C:\Users\Potentiostat\Documents\EC-Lab\Data\Supercapacitor until 2021 02\(230125) SC JJ1-53 54 lower CB better viscosity\
	Host : 127.0.0.1
Device : SP-150 (SN 1275)
Address : USB
EC-Lab for windows v11.16 (software)
Internet server v11.16 (firmware)
Command interpretor v11.16 (firmware)
Electrode material : Au/Pd
Initial state :
Electrolyte : NaCl (0.2M)
Comments : Fe(CN)63-/Fe(CN)64- 5.10-3 M
Reference electrode : SCE Saturated Calomel Electrode (0.241 V)
Electrode surface area : 0.001 cm²
Characteristic mass : 0.001 g
Equivalent Weight : 0.000 g/eq.
Density : 0.000 g/cm3
Cycle Definition : Charge/Discharge alternance
Ns                  0                   1
Is                  10.000              -10.000
unit Is             mA                  mA
vs.                 <None>              <None>
ts (h:m:s)          24:00:0.0000        24:00:0.0000
EM (V)              0.800               0.000
dQM                 240.000             240.000
unit dQM            mA.h                mA.h
record              Ewe                 Ewe
dEs (mV)            1.00                1.00
dts (s)             1.0000              1.0000
E range min (V)     -10.000             -10.000
E range max (V)     10.000              10.000
I Range             10 mA               10 mA
Bandwidth           5                   5
goto Ns'            0                   0
nc cycles           0                   5

mode	ox/red	error	control changes	Ns changes	counter inc.	Ns	time/s	control/mA	Ewe/V	I/mA	dQ/C	(Q-Qo)/C	half cycle	Q charge/discharge/mA.h	Energy charge/W.h	Energy discharge/W.h	Capacitance charge/µF	Capacitance discharge/µF	Q discharge/mA.h	Q charge/mA.h	Capacity/mA.h	Efficiency/%	cycle number	P/W
1	1	0	0	0	0	0	1346.5	10	0.687123	9.89511	0.0000000E+000	0.0000000E+000	0	0.000000000000000E+000	0.000000000000000E+000	0.000000000000000E+000	0.000000000000000E+000	0.000000000000000E+000	0.000000000000000E+000	0.000000000000000E+000	0.000000000000000E+000	0	0.000000000000000E+000	0.00679916
1	1	0	0	0	0	0	1346.5	10	0.754631	9.9996	5.00005e-05	5.00005e-05	0	1.3889e-05	1.02469e-08	0.000000000000000E+000	969.988	0.000000000000000E+000	0.000000000000000E+000	1.3889e-05	1.3889e-05	0	0.000000000000000E+000	0.007546
1	1	0	0	0	0	0	1346.52	10	0.783446	10.0001	0.000160003	0.000160003	0	4.44454e-05	3.38322e-08	0.000000000000000E+000	1991	0.000000000000000E+000	0.000000000000000E+000	4.44454e-05	4.44454e-05	0	0.000000000000000E+000	0.00783455
1	0	0	1	0	0	1	1346.53	-10	0.147343	-9.9836	-1.17983e-05	0.000274209	1	-3.27731e-06	6.15972e-08	-5.54484e-10	2938.6	247.654	3.27731e-06	0.000000000000000E+000	3.27731e-06	0	0.000000000000000E+000	-0.00147101
1	0	0	1	0	0	1	1346.53	-10	0.0883554	-9.99895	-5.77714e-05	0.000228236	1	-1.60476e-05	6.15972e-08	-1.96405e-09	2938.6	540.186	1.60476e-05	0.000000000000000E+000	1.60476e-05	0	0.000000000000000E+000	-0.000883461
1	0	0	1	0	0	1	1346.54	-10	0.0547848	-10.0016	-0.000123773	0.000162234	1	-3.43815e-05	6.15972e-08	-3.22829e-09	2938.6	880.182	3.43815e-05	0.000000000000000E+000	3.43815e-05	0	0.000000000000000E+000	-0.000547937
1	0	0	1	0	0	1	1346.55	-10	0.0259309	-10.0027	-0.000227793	5.8215e-05	1	-6.32757e-05	6.15972e-08	-4.33745e-09	2938.6	1343.64	6.32757e-05	0.000000000000000E+000	6.32757e-05	0	0.000000000000000E+000	-0.000259379
1	0	0	1	0	0	1	1346.57	-10	-0.000688818	-10.0033	-0.000385834	-9.98264e-05	1	-0.000107176	6.15972e-08	-4.82313e-09	2938.6	1966.66	0.000107176	0.000000000000000E+000	0.000107176	134.903	0.000000000000000E+000	6.89045e-06
1	1	0	0	0	1	0	1346.57	10	0.70733	10	4.39533e-05	-5.58731e-05	2	1.22093e-05	8.26012e-09	-7.40691e-12	464.553	0.000000000000000E+000	0.000000000000000E+000	1.22093e-05	1.22093e-05	0	1	0.00707333
1	1	0	0	0	1	0	1346.58	10	0.741053	10.0007	9.99553e-05	1.28843e-07	2	2.77654e-05	1.95713e-08	-7.40691e-12	778.604	0.000000000000000E+000	0.000000000000000E+000	2.77654e-05	2.77654e-05	0	1	0.00741104
1	1	0	0	0	1	0	1346.59	10	0.771741	9.99954	0.00020796	0.000108133	2	5.77666e-05	4.23392e-08	-7.40691e-12	1307.19	0.000000000000000E+000	0.000000000000000E+000	5.77666e-05	5.77666e-05	0	1	0.00771705
1	1	0	0	0	1	0	1346.61	10	0.798551	10.0008	0.000389966	0.00029014	2	0.000108324	8.2136e-08	-7.40691e-12	2097.58	0.000000000000000E+000	0.000000000000000E+000	0.000108324	0.000108324	0	1	0.00798616
1	0	0	1	0	1	1	1346.61	-10	0.103899	-10.0028	-3.99683e-05	0.000268173	3	-1.11023e-05	8.61394e-08	-1.49724e-09	2170.11	454.036	1.11023e-05	0.000000000000000E+000	1.11023e-05	0	1	-0.00103929
1	0	0	1	0	1	1	1346.62	-10	0.0706917	-10.0035	-8.79844e-05	0.000220156	3	-2.44401e-05	8.61394e-08	-2.62705e-09	2170.11	725.285	2.44401e-05	0.000000000000000E+000	2.44401e-05	0	1	-0.000707167
1	0	0	1	0	1	1	1346.63	-10	0.0393935	-10.003	-0.000174014	0.000134127	3	-4.83372e-05	8.61394e-08	-3.88755e-09	2170.11	1139.93	4.83372e-05	0.000000000000000E+000	4.83372e-05	0	1	-0.000394052
1	0	0	1	0	1	1	1346.64	-10	0.00943201	-10.0033	-0.000320063	-1.19221e-05	3	-8.89064e-05	8.61394e-08	-4.79542e-09	2170.11	1752.41	8.89064e-05	0.000000000000000E+000	8.89064e-05	0	1	-9.43517e-05
1	1	0	0	0	0	0	1346.65	10	0.686745	9.99985	2.59524e-05	-5.59925e-05	4	7.20901e-06	4.76298e-09	-7.40675e-12	346.971	0.000000000000000E+000	0.000000000000000E+000	7.20901e-06	7.20901e-06	0	2	0.00686735
1	1	0	0	0	0	0	1346.66	10	0.729233	9.99998	7.59538e-05	-5.99108e-06	4	2.10983e-05	1.46582e-08	-7.40675e-12	647.258	0.000000000000000E+000	0.000000000000000E+000	2.10983e-05	2.10983e-05	0	2	0.00729232
1	1	0	0	0	0	0	1346.66	10	0.761715	10.0002	0.000163957	8.20123e-05	4	4.55437e-05	3.29479e-08	-7.40675e-12	1094.08	0.000000000000000E+000	0.000000000000000E+000	4.55437e-05	4.55437e-05	0	2	0.00761728
1	1	0	0	0	0	0	1346.68	10	0.789633	10.0003	0.000315964	0.000234019	4	8.77677e-05	6.57845e-08	-7.40675e-12	1777.15	0.000000000000000E+000	0.000000000000000E+000	8.77677e-05	8.77677e-05	0	2	0.00789657
1	0	0	1	0	0	1	1346.69	-10	0.123339	-10.0035	-2.39636e-05	0.000300059	5	-6.65656e-06	8.56827e-08	-9.99919e-10	2150.74	353.387	6.65656e-06	0.000000000000000E+000	6.65656e-06	0	2	-0.00123383
1	0	0	1	0	0	1	1346.7	-10	0.0805833	-10.0035	-6.99791e-05	0.000254044	5	-1.94386e-05	8.56827e-08	-2.25184e-09	2150.74	632.274	1.94386e-05	0.000000000000000E+000	1.94386e-05	0	2	-0.000806114
1	0	0	1	0	0	1	1346.7	-10	0.0472419	-10.0038	-0.000148006	0.000176017	5	-4.11129e-05	8.56827e-08	-3.58197e-09	2150.74	1027.29	4.11129e-05	0.000000000000000E+000	4.11129e-05	0	2	-0.000472598
1	0	0	1	0	0	1	1346.72	-10	0.018598	-10.003	-0.000268048	5.59752e-05	5	-7.44577e-05	8.56827e-08	-4.6155e-09	2150.74	1551.68	7.44577e-05	0.000000000000000E+000	7.44577e-05	0	2	-0.000186037
1	1	0	0	0	1	0	1346.73	10	0.653785	9.99973	9.95341e-06	-5.61127e-05	6	2.76484e-06	1.76616e-09	-7.41233e-12	243.366	0.000000000000000E+000	0.000000000000000E+000	2.76484e-06	2.76484e-06	0	3	0.00653767
[...]
1	0	0	1	0	1	1	1346.79	-10	0.0279359	-10.003	-0.000222032	0.000115868	7	-6.16754e-05	8.52544e-08	-4.33432e-09	2150.4	1355.49	6.16754e-05	0.000000000000000E+000	6.16754e-05	0	3	-0.000279442
1	0	0	1	0	1	1	1346.81	-10	0.000170497	-10.0028	-0.000388089	-5.01893e-05	7	-0.000107803	8.52544e-08	-4.90174e-09	2150.4	2025.63	0.000107803	0.000000000000000E+000	0.000107803	0	3	-1.70546e-06
1	1	0	0	0	0	0	1346.81	10	0.705459	10.0003	4.19536e-05	-1.22371e-05	8	1.16538e-05	7.86541e-09	-7.3911e-12	449.272	0.000000000000000E+000	0.000000000000000E+000	1.16538e-05	1.16538e-05	0	4	0.0070548
1	1	0	0	0	0	0	1346.82	10	0.739106	10.0013	9.59557e-05	4.17649e-05	8	2.66544e-05	1.87427e-08	-7.3911e-12	755.143	0.000000000000000E+000	0.000000000000000E+000	2.66544e-05	2.66544e-05	0	4	0.00739198
1	1	0	0	0	0	0	1346.83	10	0.769277	10.0006	0.000195959	0.000141769	8	5.44332e-05	3.97588e-08	-7.3911e-12	1246.04	0.000000000000000E+000	0.000000000000000E+000	5.44332e-05	5.44332e-05	0	4	0.0076932
1	1	0	0	0	0	0	1346.85	10	0.79561	10.0006	0.000361966	0.000307776	8	0.000100546	7.59245e-08	-7.3911e-12	1971.37	0.000000000000000E+000	0.000000000000000E+000	0.000100546	0.000100546	0	4	0.00795654
1	0	0	1	0	0	1	1346.85	-10	0.108024	-10.0037	-3.59674e-05	0.000311811	9	-9.99093e-06	8.48009e-08	-1.37865e-09	2133.74	433.694	9.99093e-06	0.000000000000000E+000	9.99093e-06	0	4	-0.00108064
1	0	0	1	0	0	1	1346.86	-10	0.0728304	-10.0044	-8.39834e-05	0.000263795	9	-2.33287e-05	8.48009e-08	-2.54633e-09	2133.74	710.481	2.33287e-05	0.000000000000000E+000	2.33287e-05	0	4	-0.000728627
1	0	0	1	0	0	1	1346.87	-10	0.0396226	-10.0035	-0.000174015	0.000173763	9	-4.83375e-05	8.48009e-08	-3.89027e-09	2133.74	1148.9	4.83375e-05	0.000000000000000E+000	4.83375e-05	0	4	-0.000396367
1	0	0	1	0	0	1	1346.88	-10	0.0115326	-10.0029	-0.000310061	3.77167e-05	9	-8.61281e-05	8.48009e-08	-4.78821e-09	2133.74	1726.61	8.61281e-05	0.000000000000000E+000	8.61281e-05	0	4	-0.000115359
1	1	0	0	0	1	0	1346.89	10	0.680462	9.99998	2.19528e-05	-2.43596e-05	10	6.098e-06	3.99983e-09	-7.42182e-12	318.602	0.000000000000000E+000	0.000000000000000E+000	6.098e-06	6.098e-06	0	5	0.00680461
1	1	0	0	0	1	0	1346.9	10	0.724612	9.99985	6.79536e-05	2.16411e-05	10	1.8876e-05	1.30353e-08	-7.42182e-12	600.714	0.000000000000000E+000	0.000000000000000E+000	1.8876e-05	1.8876e-05	0	5	0.00724601
1	1	0	0	0	1	0	1346.9	10	0.756559	10.0012	0.000145956	9.9644e-05	10	4.05435e-05	2.91389e-08	-7.42182e-12	1005.9	0.000000000000000E+000	0.000000000000000E+000	4.05435e-05	4.05435e-05	0	5	0.00756649
1	1	0	0	0	1	0	1346.92	10	0.785986	10.0002	0.000289962	0.00024365	10	8.0545e-05	6.00807e-08	-7.42182e-12	1661.25	0.000000000000000E+000	0.000000000000000E+000	8.0545e-05	8.0545e-05	0	5	0.00786005
1	0	0	1	0	1	1	1346.93	-10	0.12987	-10.0032	-1.99621e-05	0.000337692	11	-5.54502e-06	8.52305e-08	-8.61419e-10	2135.6	325.018	5.54502e-06	0.000000000000000E+000	5.54502e-06	0	5	-0.00129911
1	0	0	1	0	1	1	1346.94	-10	0.083505	-10.0033	-6.59779e-05	0.000291676	11	-1.83272e-05	8.52305e-08	-2.16352e-09	2135.6	611.404	1.83272e-05	0.000000000000000E+000	1.83272e-05	0	5	-0.000835324
1	0	0	1	0	1	1	1346.94	-10	0.0513857	-10.0033	-0.000136002	0.000221651	11	-3.77784e-05	8.52305e-08	-3.42769e-09	2135.6	970.851	3.77784e-05	0.000000000000000E+000	3.77784e-05	0	5	-0.000514029
1	0	0	1	0	1	1	1346.96	-10	0.0224172	-10.0035	-0.000250043	0.000107611	11	-6.94564e-05	8.52305e-08	-4.53343e-09	2135.6	1478.8	6.94564e-05	0.000000000000000E+000	6.94564e-05	0	5	-0.00022425
1	0	0	1	0	1	1	1346.97	-10	-0.000364188	-10.003	-0.000394094	-3.64402e-05	11	-0.000109471	8.52305e-08	-4.91879e-09	2135.6	2053.81	0.000109471	0.000000000000000E+000	0.000109471	97.5562	5	3.64296e-06