Folder: potentiostat-data-analysis/Input_data (part 6)

File: [1] JJ1-53 1st SC total meas_11_CV.mpt
EC-Lab ASCII FILE
Nb header lines : 56

Cyclic Voltammetry

Run on channel : 1 (SN 31418)
User :
CE vs. WE compliance from -10 V to 10 V
Electrode connection : standard
Ewe ctrl range : min = -10.00 V, max = 10.00 V
Safety Limits :
	Do not start on E overload
Acquisition started on : 01/25/2023 15:21:28
Technique started on : 01/25/2023 17:55:22
Saved on :
	File : [1] JJ1-53 1st SC total meas_11_CV.mpr
	Directory : C:\Users\Potentiostat\Documents\EC-Lab\Data\Supercapacitor until 2021 02\(230125) SC JJ1-53 54 lower CB better viscosity\
	Host : 127.0.0.1
Device : SP-150 (SN 1275)
Address : USB
EC-Lab for windows v11.16 (software)
Internet server v11.16 (firmware)
Command interpretor v11.16 (firmware)
Electrode material : Au/Pd
Initial state :
Electrolyte : NaCl (0.2M)
Comments : Fe(CN)63-/Fe(CN)64- 5.10-3 M
Reference electrode : SCE Saturated Calomel Electrode (0.241 V)
Electrode surface area : 0.001 cm²
Characteristic mass : 0.001 g
Equivalent Weight : 0.000 g/eq.
Density : 0.000 g/cm3
Cycle Definition : Charge/Discharge alternance
Ei (V)              0.000
vs.                 Ref
dE/dt               50.000
dE/dt unit          mV/s
E1 (V)              0.800
vs.                 Ref
Step percent        50
N                   10
E range min (V)     -10.000
E range max (V)     10.000
I Range             Auto
I Range min         Unset
I Range max         Unset
I Range init        Unset
Bandwidth           7
E2 (V)              0.000
vs.                 Ref
nc cycles           5
Reverse Scan        0
Ef (V)              0.000
vs.                 Eoc

mode	ox/red	error	control changes	counter inc.	time/s	control/V	Ewe/V	<I>/mA	cycle number	(Q-Qo)/C	P/W
2	1	0	1	0	9234.9	0.00475104	0.0043334	-1.79078	1	0.0000000E+000	-7.76019e-06
2	1	0	0	0	9236.26	0.0729646	0.072567	-0.32969	1	-0.00126512	-2.39246e-05
2	1	0	0	0	9237.61	0.140704	0.140263	0.445048	1	-0.00114611	6.24239e-05
2	1	0	1	0	9238.97	0.208453	0.208052	0.985482	1	-0.000153719	0.000205031
2	1	0	0	0	9240.36	0.277745	0.277297	1.40555	1	0.00151819	0.000389753
2	1	0	0	0	9241.71	0.345489	0.344993	1.74135	1	0.00365962	0.000600752
2	1	0	1	0	9243.07	0.413235	0.412688	2.04005	1	0.00622831	0.000841904
2	1	0	0	0	9244.42	0.480984	0.480517	2.32677	1	0.00919092	0.00111805
2	1	0	1	0	9245.78	0.548733	0.54821	2.61994	1	0.012544	0.00143628
2	1	0	1	0	9247.13	0.616474	0.616017	2.93332	1	0.0163071	0.00180698
2	1	0	0	0	9248.48	0.684223	0.683767	3.27456	1	0.0205144	0.00223904
2	1	0	1	0	9249.84	0.751975	0.751515	3.64077	1	0.0252006	0.00273609
2	0	0	1	0	9251.14	0.782762	0.782287	3.25075	1	0.0300372	0.00254302
2	0	0	1	0	9252.49	0.715022	0.714538	1.48275	1	0.0331451	0.00105948
2	0	0	1	0	9253.89	0.645423	0.644998	0.255746	1	0.0343008	0.000164956
2	0	0	1	0	9255.24	0.577677	0.577213	-0.614402	1	0.0340241	-0.000354641
2	0	0	0	0	9256.63	0.508393	0.507879	-1.28029	1	0.0326856	-0.000650235
2	0	0	1	0	9257.98	0.440641	0.440185	-1.77291	1	0.0305974	-0.000780409
2	0	0	0	0	9259.34	0.372892	0.372334	-2.14925	1	0.0279245	-0.000800239
2	0	0	0	0	9260.69	0.305152	0.304675	-2.42556	1	0.0248118	-0.00073901
2	0	0	1	0	9262.05	0.237402	0.236919	-2.63473	1	0.0213746	-0.000624217
2	0	0	0	0	9263.4	0.169653	0.169249	-2.80939	1	0.0176788	-0.000475485
2	0	0	0	0	9264.76	0.101907	0.101414	-2.96269	1	0.0137627	-0.000300457
2	0	0	1	0	9266.11	0.0341628	0.03372	-3.10534	1	0.00964785	-0.000104712
2	1	0	0	1	9267.38	0.0295437	0.0290769	-2.18377	2	0.00596097	-6.34972e-05
2	1	0	0	1	9268.74	0.0972842	0.096788	-0.801408	2	0.00402704	-7.75667e-05
2	1	0	1	1	9270.12	0.166573	0.166208	0.0981886	2	0.00358484	1.63198e-05
2	1	0	0	1	9271.48	0.234325	0.233964	0.720687	2	0.00416496	0.000168615
2	1	0	0	1	9272.86	0.303608	0.303118	1.20561	2	0.00551714	0.000365443
2	1	0	1	1	9274.22	0.371355	0.370839	1.59127	2	0.00742365	0.000590106
2	1	0	0	1	9275.57	0.439104	0.438614	1.92967	2	0.00981689	0.00084638
2	1	0	1	1	9276.93	0.506854	0.506363	2.248	2	0.0126518	0.0011383
2	1	0	1	1	9278.28	0.574594	0.574019	2.56921	2	0.0159179	0.00147477
2	1	0	0	1	9279.64	0.642343	0.641835	2.90876	2	0.0196308	0.00186695
2	1	0	1	1	9280.99	0.710095	0.709583	3.2689	2	0.0238169	0.00231955
2	1	0	1	1	9282.35	0.777839	0.777328	3.65527	2	0.0285086	0.00284134
2	0	0	0	1	9283.62	0.758132	0.757638	2.39301	2	0.0326751	0.00181303
2	0	0	1	1	9284.98	0.690382	0.689888	0.898103	2	0.0348329	0.00061959
2	0	0	1	1	9286.36	0.621096	0.62067	-0.172739	2	0.0352912	-0.000107214
2	0	0	0	1	9287.72	0.553353	0.552975	-0.941939	2	0.0345062	-0.000520869
2	0	0	1	1	9289.1	0.484061	0.483585	-1.53428	2	0.0327661	-0.000741954
2	0	0	0	1	9290.46	0.416312	0.415809	-1.97303	2	0.0303722	-0.000820405
2	0	0	0	1	9291.81	0.348572	0.3481	-2.30455	2	0.0274596	-0.000802215
2	0	0	1	1	9293.17	0.280822	0.280375	-2.54404	2	0.0241626	-0.000713286
2	0	0	0	1	9294.52	0.213072	0.212629	-2.7335	2	0.0205792	-0.000581223
2	0	0	0	1	9295.88	0.145326	0.144857	-2.89441	2	0.0167609	-0.000419275
2	0	0	1	1	9297.23	0.0775826	0.0770859	-3.03731	2	0.0127379	-0.000234134
2	0	0	0	1	9298.59	0.00983208	0.00937806	-3.17601	2	0.00852432	-2.97848e-05
2	1	0	1	0	9299.86	0.0541746	0.0536761	-1.61167	3	0.00541463	-8.65082e-05
2	1	0	0	0	9301.22	0.121924	0.121472	-0.455352	3	0.00407844	-5.53125e-05
2	1	0	1	0	9302.61	0.191514	0.191114	0.335825	3	0.00403212	6.4181e-05
2	1	0	0	0	9303.97	0.259264	0.258869	0.89651	3	0.00488905	0.000232078
2	1	0	1	0	9305.35	0.328555	0.328064	1.34481	3	0.00645772	0.000441184
2	1	0	1	0	9306.71	0.396299	0.395785	1.70994	3	0.00853668	0.000676768
2	1	0	0	0	9308.06	0.464044	0.463575	2.03713	3	0.0110814	0.000944363
2	1	0	1	0	9309.42	0.531794	0.531301	2.35451	3	0.0140612	0.00125095
2	1	0	0	0	9310.77	0.599544	0.598988	2.68102	3	0.0174753	0.0016059
2	1	0	0	0	9312.13	0.667284	0.666807	3.02673	3	0.021343	0.00201825
2	1	0	1	0	9313.48	0.735034	0.73455	3.39497	3	0.0256947	0.00249377
2	0	0	0	0	9314.78	0.799857	0.799391	3.77573	3	0.0303455	0.00301828
2	0	0	0	0	9316.11	0.733492	0.732987	1.76678	3	0.0338753	0.00129503
2	0	0	0	0	9317.46	0.665751	0.665215	0.465872	3	0.0353303	0.000309905
2	0	0	1	0	9318.85	0.596462	0.596039	-0.488065	3	0.0352758	-0.000290906
2	0	0	0	0	9320.23	0.527172	0.526696	-1.19501	3	0.0340814	-0.000629408
2	0	0	0	0	9321.59	0.459427	0.458904	-1.71561	3	0.0320893	-0.0007873
2	0	0	1	0	9322.94	0.391683	0.391189	-2.11121	3	0.0294807	-0.000825882
2	0	0	0	0	9324.3	0.323931	0.323447	-2.40499	3	0.026406	-0.000777888
2	0	0	1	0	9325.65	0.256182	0.255728	-2.62052	3	0.0229915	-0.000670139
2	0	0	1	0	9327.01	0.188442	0.188008	-2.79638	3	0.0193155	-0.000525743
2	0	0	0	0	9328.36	0.120692	0.120206	-2.9476	3	0.0154182	-0.00035432
2	0	0	1	0	9329.72	0.0529428	0.0524703	-3.08751	3	0.0113247	-0.000162002
2	1	0	0	1	9330.99	0.011065	0.0105726	-2.75969	4	0.00735606	-2.9177e-05
2	1	0	1	1	9332.35	0.0788144	0.0783843	-1.12755	4	0.00484409	-8.8382e-05
2	1	0	0	1	9333.74	0.148405	0.147984	-0.120071	4	0.00402923	-1.77686e-05
2	1	0	1	1	9335.09	0.216154	0.215723	0.558428	4	0.00435568	0.000120466
2	1	0	0	1	9336.48	0.285444	0.284953	1.07839	4	0.00550938	0.00030729
2	1	0	0	1	9337.83	0.353184	0.352738	1.48337	4	0.00725706	0.000523241
2	1	0	1	1	9339.19	0.420933	0.420424	1.83012	4	0.00951066	0.000769427
2	1	0	0	1	9340.54	0.488685	0.488175	2.15118	4	0.0122138	0.00105015
2	1	0	0	1	9341.9	0.556429	0.555983	2.4699	4	0.0153474	0.00137322
2	1	0	1	1	9343.25	0.624175	0.623681	2.80119	4	0.0189202	0.00174705
[...]
2	0	0	1	1	9356.78	0.299297	0.298828	-2.49038	4	0.0252502	-0.000744195
2	0	0	0	1	9358.13	0.231552	0.231114	-2.6876	4	0.0217343	-0.000621143
2	0	0	1	1	9359.49	0.163802	0.163386	-2.85229	4	0.0179744	-0.000466024
2	0	0	0	1	9360.84	0.0960524	0.0956106	-2.9978	4	0.0140056	-0.000286621
2	0	0	0	1	9362.2	0.0283119	0.0278054	-3.13622	4	0.009847	-8.72037e-05
2	1	0	1	0	9363.47	0.0356992	0.0352305	-2.0388	5	0.00624396	-7.18279e-05
2	1	0	0	0	9364.83	0.103444	0.102974	-0.719459	5	0.00445575	-7.40859e-05
2	1	0	0	0	9366.22	0.173045	0.172646	0.154581	5	0.00410597	2.66878e-05
2	1	0	0	0	9367.58	0.240784	0.240364	0.760832	5	0.00475049	0.000182877
2	1	0	1	0	9368.96	0.310074	0.309595	1.23549	5	0.00615036	0.000382503
2	1	0	0	0	9370.32	0.377823	0.377285	1.61474	5	0.0080926	0.000609216
2	1	0	0	0	9371.67	0.44557	0.445069	1.94919	5	0.0105142	0.000867526
2	1	0	1	0	9373.03	0.513313	0.512815	2.2663	5	0.0133738	0.00116219
2	1	0	0	0	9374.38	0.581064	0.580573	2.5871	5	0.0166644	0.001502
2	1	0	1	0	9375.74	0.648814	0.648278	2.92552	5	0.0204015	0.00189655
2	1	0	1	0	9377.09	0.716558	0.716087	3.28671	5	0.0246112	0.00235357
2	1	0	0	0	9378.45	0.784304	0.783814	3.67616	5	0.0293281	0.00288142
2	0	0	0	0	9379.72	0.751973	0.751472	2.21163	5	0.0332794	0.00166198
2	0	0	1	0	9381.07	0.684221	0.683743	0.771294	5	0.0352319	0.000527367
2	0	0	1	0	9382.46	0.614938	0.614497	-0.267733	5	0.0355374	-0.000164521
2	0	0	0	0	9383.83	0.546421	0.545975	-1.02335	5	0.0346234	-0.000558724
2	0	0	1	0	9385.2	0.477902	0.477455	-1.59088	5	0.0328094	-0.000759574
2	0	0	1	0	9386.55	0.410156	0.409675	-2.01698	5	0.0303477	-0.000826306
2	0	0	0	0	9387.91	0.342412	0.341863	-2.3365	5	0.0273834	-0.000798763
2	0	0	1	0	9389.26	0.274663	0.274193	-2.56636	5	0.0240504	-0.00070368
2	0	0	0	0	9390.62	0.206911	0.206464	-2.74934	5	0.0204414	-0.000567642
2	0	0	0	0	9391.97	0.139168	0.138704	-2.90574	5	0.0166042	-0.000403038
2	0	0	1	0	9393.33	0.0714215	0.0709419	-3.04651	5	0.0125675	-0.000216125
2	0	0	0	0	9394.68	0.00367213	0.00322188	-3.18367	5	0.00834284	-1.02574e-05
2	1	0	1	1	9395.96	0.0603334	0.059826	-1.47749	6	0.00544182	-8.83924e-05
2	1	0	0	1	9397.35	0.129929	0.129555	-0.344227	6	0.00423816	-4.45962e-05
2	1	0	1	1	9398.7	0.197673	0.197282	0.398234	6	0.00430735	7.85646e-05
2	1	0	0	1	9400.06	0.265425	0.264971	0.943504	6	0.00523745	0.000250001
2	1	0	1	1	9401.44	0.334714	0.334149	1.38131	6	0.00686381	0.000461564
2	1	0	1	1	9402.8	0.402454	0.40195	1.74038	6	0.0089883	0.000699546
2	1	0	0	1	9404.15	0.470204	0.469707	2.06529	6	0.0115723	0.000970081
2	1	0	1	1	9405.51	0.537953	0.537445	2.38076	6	0.0145882	0.00127953
2	1	0	1	1	9406.86	0.605699	0.605228	2.70735	6	0.0180377	0.00163856
2	1	0	0	1	9408.22	0.673443	0.672925	3.05329	6	0.0219418	0.00205464
2	1	0	1	1	9409.57	0.741195	0.740701	3.423	6	0.0263302	0.00253542
2	0	0	1	1	9410.84	0.795082	0.794553	3.55698	6	0.0308998	0.00282621
2	0	0	1	1	9412.2	0.727336	0.726842	1.61989	6	0.0342788	0.0011774
2	0	0	0	1	9413.58	0.658053	0.657626	0.337143	6	0.0355771	0.000221714
2	0	0	1	1	9414.94	0.590301	0.589911	-0.566269	6	0.0353864	-0.000334048
2	0	0	0	1	9416.32	0.521012	0.520487	-1.25425	6	0.0340975	-0.000652821
2	0	0	0	1	9417.68	0.453271	0.45273	-1.76077	6	0.0320353	-0.000797152
2	0	0	1	1	9419.03	0.385522	0.38503	-2.14582	6	0.0293728	-0.000826204
2	0	0	0	1	9420.39	0.317773	0.317216	-2.42807	6	0.0262595	-0.000770221
2	0	0	0	1	9421.74	0.250027	0.249557	-2.63613	6	0.0228191	-0.000657865
2	0	0	1	1	9423.1	0.182283	0.1818	-2.80804	6	0.0191239	-0.000510501
2	0	0	0	1	9424.45	0.114532	0.114122	-2.95617	6	0.0152131	-0.000337363
2	0	0	1	1	9425.81	0.0467817	0.0463347	-3.09452	6	0.0111095	-0.000143384
2	0	0	1	1	9426.74	-0.000131913	-0.0003069	-3.18928	6	0.0081765	9.7879e-07

File: [1] JJ1-53 1st SC total meas_12_CV.mpt
EC-Lab ASCII FILE
Nb header lines : 56

Cyclic Voltammetry

Run on channel : 1 (SN 31418)
User :
CE vs. WE compliance from -10 V to 10 V
Electrode connection : standard
Ewe ctrl range : min = -10.00 V, max = 10.00 V
Safety Limits :
	Do not start on E overload
Acquisition started on : 01/25/2023 15:21:28
Technique started on : 01/25/2023 17:58:34
Saved on :
	File : [1] JJ1-53 1st SC total meas_12_CV.mpr
	Directory : C:\Users\Potentiostat\Documents\EC-Lab\Data\Supercapacitor until 2021 02\(230125) SC JJ1-53 54 lower CB better viscosity\
	Host : 127.0.0.1
Device : SP-150 (SN 1275)
Address : USB
EC-Lab for windows v11.16 (software)
Internet server v11.16 (firmware)
Command interpretor v11.16 (firmware)
Electrode material : Au/Pd
Initial state :
Electrolyte : NaCl (0.2M)
Comments : Fe(CN)63-/Fe(CN)64- 5.10-3 M
Reference electrode : SCE Saturated Calomel Electrode (0.241 V)
Electrode surface area : 0.001 cm²
Characteristic mass : 0.001 g
Equivalent Weight : 0.000 g/eq.
Density : 0.000 g/cm3
Cycle Definition : Charge/Discharge alternance
Ei (V)              0.000
vs.                 Ref
dE/dt               100.000
dE/dt unit          mV/s
E1 (V)              0.800
vs.                 Ref
Step percent        50
N                   10
E range min (V)     -10.000
E range max (V)     10.000
I Range             Auto
I Range min         Unset
I Range max         Unset
I Range init        Unset
Bandwidth           7
E2 (V)              0.000
vs.                 Ref
nc cycles           5
Reverse Scan        0
Ef (V)              0.000
vs.                 Eoc

mode	ox/red	error	control changes	counter inc.	time/s	control/V	Ewe/V	<I>/mA	cycle number	(Q-Qo)/C	P/W
2	1	0	0	0	9426.93	0.00906223	0.00861089	-3.2245	1	0.0000000E+000	-2.77658e-05
2	1	0	1	0	9427.6	0.0754237	0.0750461	-1.38382	1	-0.00143341	-0.00010385
2	1	0	0	0	9428.31	0.146554	0.146144	-0.191586	1	-0.00196927	-2.79991e-05
2	1	0	1	0	9428.99	0.214305	0.213914	0.67777	1	-0.0017906	0.000144984
2	1	0	1	0	9429.7	0.285134	0.284662	1.41323	1	-0.00103963	0.000402293
2	1	0	0	0	9430.37	0.352884	0.352352	2.00297	1	0.000124609	0.000705751
2	1	0	1	0	9431.05	0.420622	0.420125	2.52052	1	0.00166213	0.00105893
2	1	0	1	0	9431.73	0.488376	0.48788	2.99718	1	0.0035352	0.00146226
2	1	0	0	0	9432.41	0.556125	0.555623	3.45541	1	0.00572338	0.0019199
2	1	0	1	0	9433.08	0.623864	0.623282	3.91274	1	0.00822072	0.00243874
2	1	0	1	0	9433.76	0.691613	0.691112	4.38519	1	0.0110331	0.00303066
2	1	0	0	0	9434.44	0.759362	0.758895	4.88009	1	0.0141724	0.00370348
2	0	0	0	0	9435.05	0.77999	0.779516	4.40577	1	0.0171777	0.00343437
2	0	0	1	0	9435.72	0.712252	0.711841	2.47788	1	0.0194683	0.00176386
2	0	0	1	0	9436.4	0.644502	0.644026	1.02742	1	0.0206328	0.000661688
2	0	0	0	0	9437.11	0.573363	0.572928	-0.184482	1	0.0209148	-0.000105695
2	0	0	1	0	9437.82	0.502541	0.502038	-1.16369	1	0.0204241	-0.000584215
2	0	0	0	0	9438.5	0.434792	0.434288	-1.92846	1	0.0193658	-0.000837505
2	0	0	0	0	9439.17	0.367042	0.366541	-2.55675	1	0.0178371	-0.000937154
2	0	0	1	0	9439.85	0.299293	0.298779	-3.06938	1	0.0159229	-0.000917068
2	0	0	0	0	9440.53	0.231552	0.231078	-3.48716	1	0.0136958	-0.000805804
2	0	0	0	0	9441.21	0.163801	0.16333	-3.83939	1	0.011209	-0.000627089
2	0	0	1	0	9441.88	0.0960513	0.0955537	-4.15053	1	0.00849847	-0.000396599
2	0	0	0	0	9442.56	0.028313	0.0278472	-4.4337	1	0.0055882	-0.000123466
2	1	0	0	1	9443.2	0.0357036	0.035292	-3.29214	2	0.00294591	-0.000116186
2	1	0	1	1	9443.88	0.103444	0.102983	-1.66334	2	0.00130397	-0.000171296
2	1	0	1	1	9444.57	0.172733	0.172336	-0.447186	2	0.000595211	-7.7066e-05
2	1	0	0	1	9445.26	0.242025	0.24163	0.498167	2	0.000626967	0.000120372
2	1	0	1	1	9445.97	0.312842	0.312358	1.27875	2	0.00126718	0.00039943
2	1	0	1	1	9446.65	0.380596	0.380058	1.9056	2	0.00235348	0.000724239
2	1	0	0	1	9447.33	0.448346	0.447878	2.45573	2	0.00383656	0.00109987
2	1	0	1	1	9448	0.516084	0.515551	2.96111	2	0.00567512	0.0015266
2	1	0	1	1	9448.68	0.583833	0.583317	3.44537	2	0.00784793	0.00200974
2	1	0	0	1	9449.36	0.651583	0.651105	3.92974	2	0.0103482	0.00255868
2	1	0	0	1	9450.04	0.719334	0.718827	4.42885	2	0.0131808	0.00318358
2	1	0	1	1	9450.71	0.787075	0.786572	4.95333	2	0.0163586	0.00389615
2	0	0	1	1	9451.32	0.752282	0.751827	3.41176	2	0.018998	0.00256506
2	0	0	0	1	9452	0.684532	0.684055	1.73244	2	0.0207104	0.00118508
2	0	0	0	1	9452.69	0.615089	0.61461	0.397508	2	0.0214292	0.000244312
2	0	0	0	1	9453.39	0.545651	0.545211	-0.676464	2	0.0213183	-0.000368816
2	0	0	0	1	9454.1	0.474822	0.474322	-1.5686	2	0.0205102	-0.000744021
2	0	0	1	1	9454.77	0.407072	0.406575	-2.2663	2	0.0192007	-0.000921422
2	0	0	0	1	9455.45	0.339334	0.338778	-2.83779	2	0.017463	-0.00096138
2	0	0	0	1	9456.13	0.27158	0.271079	-3.30015	2	0.0153763	-0.000894601
2	0	0	1	1	9456.81	0.203831	0.203374	-3.68077	2	0.0130057	-0.000748572
2	0	0	0	1	9457.48	0.136093	0.135626	-4.00864	2	0.010397	-0.000543675
2	0	0	0	1	9458.16	0.0683432	0.067821	-4.30185	2	0.0075785	-0.000291756
2	0	0	1	1	9458.83	0.00121371	0.000757386	-4.57019	2	0.00459787	-3.4614e-06
2	1	0	1	0	9459.48	0.0634162	0.0629684	-2.57833	3	0.00234926	-0.000162353
2	1	0	0	0	9460.15	0.131166	0.13075	-1.15797	3	0.00111137	-0.000151405
2	1	0	1	0	9460.86	0.202293	0.201925	-0.0365722	3	0.000705675	-7.38486e-06
2	1	0	0	0	9461.54	0.270043	0.269619	0.80751	3	0.000979119	0.00021772
2	1	0	1	0	9462.25	0.340865	0.340337	1.53341	3	0.00181796	0.000521875
2	1	0	1	0	9462.93	0.408614	0.408082	2.1256	3	0.00306428	0.00086742
2	1	0	0	0	9463.61	0.476364	0.475858	2.65454	3	0.00468826	0.00126318
2	1	0	0	0	9464.28	0.544113	0.543601	3.14814	3	0.00665737	0.00171133
2	1	0	1	0	9464.96	0.611854	0.611358	3.63087	3	0.00895592	0.00221976
2	1	0	0	0	9465.64	0.679605	0.679118	4.1199	3	0.011583	0.0027979
2	1	0	0	0	9466.32	0.747355	0.746853	4.62784	3	0.0145469	0.00345632
2	0	0	0	0	9466.92	0.792312	0.791805	4.71149	3	0.0174707	0.00373058
2	0	0	0	0	9467.6	0.724563	0.724012	2.65298	3	0.0199142	0.00192079
2	0	0	1	0	9468.27	0.656813	0.656304	1.1503	3	0.0211782	0.000754947
2	0	0	0	0	9468.99	0.585681	0.58522	-0.0954197	3	0.021535	-5.58415e-05
2	0	0	1	0	9469.69	0.514852	0.514353	-1.0972	3	0.0210987	-0.000564346
2	0	0	0	0	9470.37	0.447114	0.446659	-1.87995	3	0.020079	-0.000839698
2	0	0	0	0	9471.05	0.379362	0.378852	-2.52275	3	0.0185781	-0.00095575
2	0	0	1	0	9471.73	0.311611	0.311108	-3.04522	3	0.0166837	-0.000947394
2	0	0	0	0	9472.4	0.243872	0.243414	-3.4687	3	0.0144706	-0.000844332
2	0	0	0	0	9473.08	0.176123	0.175654	-3.8238	3	0.0119953	-0.000671665
2	0	0	1	0	9473.76	0.108373	0.107882	-4.1344	3	0.00929572	-0.000446027
2	0	0	1	0	9474.44	0.0406218	0.0401751	-4.41554	3	0.00639627	-0.000177395
2	1	0	0	1	9475.07	0.0233859	0.0228553	-3.69736	4	0.00361926	-8.45042e-05
2	1	0	1	1	9475.75	0.0911243	0.0906757	-1.94304	4	0.00175157	-0.000176186
2	1	0	1	1	9476.43	0.158874	0.158455	-0.685479	4	0.000883397	-0.000108617
2	1	0	0	1	9477.14	0.230013	0.229628	0.329607	4	0.000773236	7.56872e-05
2	1	0	1	1	9477.85	0.300835	0.300344	1.13951	4	0.00130506	0.000342244
2	1	0	0	1	9478.53	0.368584	0.368065	1.78476	4	0.00230362	0.000656908
2	1	0	0	1	9479.2	0.436334	0.435858	2.34664	4	0.00370883	0.0010228
2	1	0	1	1	9479.88	0.504083	0.503616	2.85708	4	0.00547563	0.00143887
2	1	0	0	1	9480.56	0.571826	0.571291	3.34356	4	0.00757877	0.00191015
2	1	0	0	1	9481.24	0.639575	0.639135	3.82678	4	0.0100095	0.00244583
[...]
2	0	0	1	1	9488.68	0.216153	0.215649	-3.62083	4	0.0134848	-0.000780829
2	0	0	1	1	9489.36	0.148404	0.147878	-3.95486	4	0.0109142	-0.000584837
2	0	0	0	1	9490.03	0.0806609	0.0802313	-4.25055	4	0.00813146	-0.000341027
2	0	0	1	1	9490.71	0.0129115	0.0124719	-4.52389	4	0.00515591	-5.64215e-05
2	1	0	1	0	9491.35	0.051094	0.0506297	-2.89063	5	0.00271169	-0.000146352
2	1	0	0	0	9492.03	0.118843	0.118388	-1.38361	5	0.00129466	-0.000163803
2	1	0	1	0	9492.74	0.189976	0.18959	-0.209653	5	0.000748884	-3.9748e-05
2	1	0	0	0	9493.42	0.257725	0.257313	0.667899	5	0.000917244	0.000171859
2	1	0	0	0	9494.12	0.328554	0.328069	1.41718	5	0.00166585	0.000464932
2	1	0	1	0	9494.8	0.396303	0.395778	2.02349	5	0.00283826	0.000800854
2	1	0	0	0	9495.48	0.464044	0.463496	2.55919	5	0.00439554	0.00118618
2	1	0	0	0	9496.16	0.531795	0.531292	3.05691	5	0.00630199	0.00162411
2	1	0	1	0	9496.83	0.599545	0.599031	3.53974	5	0.00853911	0.00212041
2	1	0	0	0	9497.51	0.667283	0.666794	4.02524	5	0.0111028	0.00268401
2	1	0	0	0	9498.19	0.735033	0.734513	4.52796	5	0.0140011	0.00332584
2	1	0	0	0	9498.84	0.799857	0.799449	5.03698	5	0.0171015	0.00402681
2	0	0	0	0	9499.47	0.73688	0.736391	2.96643	5	0.0195806	0.00218445
2	0	0	1	0	9500.15	0.669131	0.668659	1.39139	5	0.0210304	0.000930363
2	0	0	0	0	9500.86	0.598003	0.597593	0.0963737	5	0.0215399	5.75923e-05
2	0	0	1	0	9501.54	0.530254	0.529808	-0.901455	5	0.0212536	-0.000477598
2	0	0	0	0	9502.25	0.459431	0.458936	-1.75389	5	0.0203012	-0.000804923
2	0	0	0	0	9502.92	0.391682	0.3912	-2.41814	5	0.0188784	-0.000945978
2	0	0	1	0	9503.6	0.323933	0.323448	-2.96038	5	0.0170476	-0.000957528
2	0	0	1	0	9504.28	0.256183	0.255719	-3.39854	5	0.0148866	-0.000869073
2	0	0	0	0	9504.96	0.188441	0.187948	-3.76218	5	0.0124561	-0.000707096
2	0	0	1	0	9505.63	0.120691	0.120191	-4.07767	5	0.00979618	-0.0004901
2	0	0	1	0	9506.31	0.0529417	0.052524	-4.36292	5	0.0069334	-0.000229158
2	1	0	0	1	9506.95	0.0110638	0.0106054	-4.11513	6	0.00409749	-4.36428e-05
2	1	0	0	1	9507.63	0.0788133	0.0783926	-2.21054	6	0.00200734	-0.00017329
2	1	0	1	1	9508.3	0.146554	0.146066	-0.886379	6	0.000983137	-0.00012947
2	1	0	0	1	9509.01	0.217695	0.217258	0.174204	6	0.00074788	3.78471e-05
2	1	0	1	1	9509.69	0.285444	0.285075	0.979895	6	0.00115037	0.000279344
2	1	0	0	1	9510.4	0.356262	0.355751	1.67694	6	0.00210002	0.000596575
2	1	0	0	1	9511.08	0.424016	0.423484	2.24948	6	0.00343634	0.000952621
2	1	0	1	1	9511.76	0.491765	0.491219	2.76638	6	0.00514014	0.0013589
2	1	0	0	1	9512.43	0.559504	0.558991	3.25496	6	0.00718281	0.00181949
2	1	0	0	1	9513.11	0.627253	0.626748	3.73705	6	0.00955305	0.00234219
2	1	0	1	1	9513.79	0.695002	0.694471	4.22683	6	0.0122521	0.00293541
2	1	0	0	1	9514.46	0.762745	0.762271	4.74106	6	0.0152901	0.00361397
2	0	0	1	1	9515.07	0.776911	0.776396	4.15154	6	0.0181693	0.00322324
2	0	0	0	1	9515.75	0.709172	0.708671	2.27007	6	0.0203055	0.00160873
2	0	0	0	1	9516.42	0.641423	0.640911	0.850191	6	0.0213401	0.000544897
2	0	0	1	1	9517.14	0.570282	0.569841	-0.337531	6	0.0215052	-0.000192339
2	0	0	0	1	9517.84	0.499462	0.498959	-1.29552	6	0.0209137	-0.000646413
2	0	0	1	1	9518.52	0.431712	0.431202	-2.04224	6	0.0197723	-0.000880618
2	0	0	1	1	9519.2	0.363963	0.363458	-2.65478	6	0.0181719	-0.000964901
2	0	0	0	1	9519.88	0.296222	0.295776	-3.15031	6	0.0161973	-0.000931788
2	0	0	1	1	9520.55	0.228471	0.227979	-3.5542	6	0.0139199	-0.000810283
2	0	0	1	1	9521.23	0.160721	0.160271	-3.89468	6	0.0113919	-0.000624205
2	0	0	0	1	9521.91	0.0929719	0.092542	-4.19611	6	0.00864711	-0.000388316
2	0	0	1	1	9522.59	0.0252336	0.0247354	-4.473	6	0.00570799	-0.000110642
2	0	0	1	1	9522.84	-0.000131913	-0.000383284	-4.57072	6	0.00457283	1.75188e-06